subject_ids,diff_species,choice,Imj1,Imj2,Img3,CamNum,SD_card_num,ForestType,ForestName,round,Date_Out,Date_Checked,Use_End_Date
39638664,1,HUMAN,01_23_DEG_000001.JPG,01_23_DEG_000002.JPG,01_23_DEG_000003.JPG,1,23,Pine,DEG,4,9/27/19,11/17/19,11/17/19
39638692,1,DEERWHITETAILED,01_23_DEG_000004.JPG,01_23_DEG_000005.JPG,01_23_DEG_000006.JPG,1,23,Pine,DEG,4,9/27/19,11/17/19,11/17/19
39638739,1,CHIPMUNK,01_23_DEG_000007.JPG,01_23_DEG_000008.JPG,01_23_DEG_000009.JPG,1,23,Pine,DEG,4,9/27/19,11/17/19,11/17/19
39638777,1,COYOTE,01_23_DEG_000010.JPG,01_23_DEG_000011.JPG,01_23_DEG_000012.JPG,1,23,Pine,DEG,4,9/27/19,11/17/19,11/17/19
39638788,2,SOMETHINGHERE,01_23_DEG_000013.JPG,01_23_DEG_000014.JPG,01_23_DEG_000015.JPG,1,23,Pine,DEG,4,9/27/19,11/17/19,11/17/19
39638804,2,FISHER,01_23_DEG_000016.JPG,01_23_DEG_000017.JPG,01_23_DEG_000018.JPG,1,23,Pine,DEG,4,9/27/19,11/17/19,11/17/19
39638831,1,COTTONTAILRABBIT,01_23_DEG_000019.JPG,01_23_DEG_000020.JPG,01_23_DEG_000021.JPG,1,23,Pine,DEG,4,9/27/19,11/17/19,11/17/19
39638837,1,COTTONTAILRABBIT,01_23_DEG_000022.JPG,01_23_DEG_000023.JPG,01_23_DEG_000024.JPG,1,23,Pine,DEG,4,9/27/19,11/17/19,11/17/19
39638847,1,COTTONTAILRABBIT,01_23_DEG_000025.JPG,01_23_DEG_000026.JPG,01_23_DEG_000027.JPG,1,23,Pine,DEG,4,9/27/19,11/17/19,11/17/19
39638862,1,NOTHINGHERE,01_23_DEG_000028.JPG,01_23_DEG_000029.JPG,01_23_DEG_000030.JPG,1,23,Pine,DEG,4,9/27/19,11/17/19,11/17/19
39638882,1,NOTHINGHERE,01_23_DEG_000031.JPG,01_23_DEG_000032.JPG,01_23_DEG_000033.JPG,1,23,Pine,DEG,4,9/27/19,11/17/19,11/17/19
39638904,1,CHIPMUNK,01_23_DEG_000034.JPG,01_23_DEG_000035.JPG,01_23_DEG_000036.JPG,1,23,Pine,DEG,4,9/27/19,11/17/19,11/17/19
39638906,1,CHIPMUNK,01_23_DEG_000037.JPG,01_23_DEG_000038.JPG,01_23_DEG_000039.JPG,1,23,Pine,DEG,4,9/27/19,11/17/19,11/17/19
39638920,1,COTTONTAILRABBIT,01_23_DEG_000040.JPG,01_23_DEG_000042.JPG,01_23_DEG_000041.JPG,1,23,Pine,DEG,4,9/27/19,11/17/19,11/17/19
39638921,1,DEERWHITETAILED,01_23_DEG_000043.JPG,01_23_DEG_000044.JPG,01_23_DEG_000045.JPG,1,23,Pine,DEG,4,9/27/19,11/17/19,11/17/19
39638922,1,COTTONTAILRABBIT,01_23_DEG_000046.JPG,01_23_DEG_000047.JPG,01_23_DEG_000048.JPG,1,23,Pine,DEG,4,9/27/19,11/17/19,11/17/19
39638930,1,DEERWHITETAILED,01_23_DEG_000049.JPG,01_23_DEG_000051.JPG,01_23_DEG_000050.JPG,1,23,Pine,DEG,4,9/27/19,11/17/19,11/17/19
39638935,1,RACCOON,01_23_DEG_000052.JPG,01_23_DEG_000054.JPG,01_23_DEG_000053.JPG,1,23,Pine,DEG,4,9/27/19,11/17/19,11/17/19
39638986,2,CHIPMUNK,01_23_DEG_000055.JPG,01_23_DEG_000056.JPG,01_23_DEG_000057.JPG,1,23,Pine,DEG,4,9/27/19,11/17/19,11/17/19
39638989,1,CHIPMUNK,01_23_DEG_000058.JPG,01_23_DEG_000059.JPG,01_23_DEG_000060.JPG,1,23,Pine,DEG,4,9/27/19,11/17/19,11/17/19
39639040,1,CHIPMUNK,01_23_DEG_000061.JPG,01_23_DEG_000062.JPG,01_23_DEG_000063.JPG,1,23,Pine,DEG,4,9/27/19,11/17/19,11/17/19
39639044,1,COTTONTAILRABBIT,01_23_DEG_000064.JPG,01_23_DEG_000066.JPG,01_23_DEG_000065.JPG,1,23,Pine,DEG,4,9/27/19,11/17/19,11/17/19
39639045,1,DEERWHITETAILED,01_23_DEG_000067.JPG,01_23_DEG_000068.JPG,01_23_DEG_000069.JPG,1,23,Pine,DEG,4,9/27/19,11/17/19,11/17/19
39639134,1,CHIPMUNK,01_23_DEG_000070.JPG,01_23_DEG_000071.JPG,01_23_DEG_000072.JPG,1,23,Pine,DEG,4,9/27/19,11/17/19,11/17/19
39639136,1,CHIPMUNK,01_23_DEG_000073.JPG,01_23_DEG_000074.JPG,01_23_DEG_000075.JPG,1,23,Pine,DEG,4,9/27/19,11/17/19,11/17/19
39639207,1,DEERWHITETAILED,01_23_DEG_000076.JPG,01_23_DEG_000077.JPG,01_23_DEG_000078.JPG,1,23,Pine,DEG,4,9/27/19,11/17/19,11/17/19
39639218,1,COTTONTAILRABBIT,01_23_DEG_000079.JPG,01_23_DEG_000080.JPG,01_23_DEG_000081.JPG,1,23,Pine,DEG,4,9/27/19,11/17/19,11/17/19
39639247,1,GROUSERUFFED,01_23_DEG_000083.JPG,01_23_DEG_000082.JPG,NA,1,23,Pine,DEG,4,9/27/19,11/17/19,11/17/19
39639304,1,DEERWHITETAILED,01_23_DEG_000087.JPG,01_23_DEG_000085.JPG,01_23_DEG_000086.JPG,1,23,Pine,DEG,4,9/27/19,11/17/19,11/17/19
39639307,1,DEERWHITETAILED,01_23_DEG_000088.JPG,01_23_DEG_000089.JPG,01_23_DEG_000090.JPG,1,23,Pine,DEG,4,9/27/19,11/17/19,11/17/19
39639401,1,NOTHINGHERE,01_23_DEG_000091.JPG,01_23_DEG_000092.JPG,01_23_DEG_000093.JPG,1,23,Pine,DEG,4,9/27/19,11/17/19,11/17/19
39639426,1,COTTONTAILRABBIT,01_23_DEG_000094.JPG,01_23_DEG_000095.JPG,01_23_DEG_000096.JPG,1,23,Pine,DEG,4,9/27/19,11/17/19,11/17/19
39639443,1,SQUIRRELRED,01_23_DEG_000097.JPG,01_23_DEG_000098.JPG,01_23_DEG_000099.JPG,1,23,Pine,DEG,4,9/27/19,11/17/19,11/17/19
39639494,2,SOMETHINGHERE,01_23_DEG_000100.JPG,01_23_DEG_000101.JPG,01_23_DEG_000102.JPG,1,23,Pine,DEG,4,9/27/19,11/17/19,11/17/19
39639518,1,NOTHINGHERE,01_23_DEG_000103.JPG,01_23_DEG_000104.JPG,01_23_DEG_000105.JPG,1,23,Pine,DEG,4,9/27/19,11/17/19,11/17/19
39639520,1,COYOTE,01_23_DEG_000106.JPG,01_23_DEG_000107.JPG,01_23_DEG_000108.JPG,1,23,Pine,DEG,4,9/27/19,11/17/19,11/17/19
39639594,1,NOTHINGHERE,01_23_DEG_000109.JPG,01_23_DEG_000110.JPG,01_23_DEG_000111.JPG,1,23,Pine,DEG,4,9/27/19,11/17/19,11/17/19
39639665,1,NOTHINGHERE,01_23_DEG_000112.JPG,01_23_DEG_000114.JPG,01_23_DEG_000113.JPG,1,23,Pine,DEG,4,9/27/19,11/17/19,11/17/19
39639684,1,COTTONTAILRABBIT,01_23_DEG_000115.JPG,01_23_DEG_000116.JPG,01_23_DEG_000117.JPG,1,23,Pine,DEG,4,9/27/19,11/17/19,11/17/19
39639693,1,BLUEJAY,01_23_DEG_000118.JPG,01_23_DEG_000119.JPG,01_23_DEG_000120.JPG,1,23,Pine,DEG,4,9/27/19,11/17/19,11/17/19
39639699,1,OTHERSMALLMAMMAL,01_23_DEG_000121.JPG,01_23_DEG_000122.JPG,01_23_DEG_000123.JPG,1,23,Pine,DEG,4,9/27/19,11/17/19,11/17/19
39639702,1,DEERWHITETAILED,01_23_DEG_000124.JPG,01_23_DEG_000125.JPG,01_23_DEG_000126.JPG,1,23,Pine,DEG,4,9/27/19,11/17/19,11/17/19
39639807,2,SOMETHINGHERE,01_23_DEG_000127.JPG,01_23_DEG_000128.JPG,01_23_DEG_000129.JPG,1,23,Pine,DEG,4,9/27/19,11/17/19,11/17/19
39639814,1,DEERWHITETAILED,01_23_DEG_000131.JPG,01_23_DEG_000130.JPG,01_23_DEG_000132.JPG,1,23,Pine,DEG,4,9/27/19,11/17/19,11/17/19
39639875,1,FISHER,01_23_DEG_000133.JPG,01_23_DEG_000134.JPG,01_23_DEG_000135.JPG,1,23,Pine,DEG,4,9/27/19,11/17/19,11/17/19
39639879,1,DEERWHITETAILED,01_23_DEG_000136.JPG,01_23_DEG_000137.JPG,01_23_DEG_000138.JPG,1,23,Pine,DEG,4,9/27/19,11/17/19,11/17/19
39639890,1,COYOTE,01_23_DEG_000139.JPG,01_23_DEG_000140.JPG,01_23_DEG_000141.JPG,1,23,Pine,DEG,4,9/27/19,11/17/19,11/17/19
39639894,1,NOTHINGHERE,01_23_DEG_000142.JPG,01_23_DEG_000144.JPG,01_23_DEG_000143.JPG,1,23,Pine,DEG,4,9/27/19,11/17/19,11/17/19
39639947,1,DEERWHITETAILED,01_23_DEG_000148.JPG,01_23_DEG_000149.JPG,01_23_DEG_000150.JPG,1,23,Pine,DEG,4,9/27/19,11/17/19,11/17/19
39639953,1,DEERWHITETAILED,01_23_DEG_000151.JPG,01_23_DEG_000152.JPG,01_23_DEG_000153.JPG,1,23,Pine,DEG,4,9/27/19,11/17/19,11/17/19
39639954,1,FISHER,01_23_DEG_000154.JPG,01_23_DEG_000155.JPG,01_23_DEG_000156.JPG,1,23,Pine,DEG,4,9/27/19,11/17/19,11/17/19
39639964,1,OTHERBIRD,01_23_DEG_000157.JPG,01_23_DEG_000158.JPG,01_23_DEG_000159.JPG,1,23,Pine,DEG,4,9/27/19,11/17/19,11/17/19
39639972,1,HUMAN,01_23_DEG_000160.JPG,01_23_DEG_000161.JPG,NA,1,23,Pine,DEG,4,9/27/19,11/17/19,11/17/19
39638591,1,OPOSSUM,02_07_SH_000001.JPG,02_07_SH_000002.JPG,02_07_SH_000003.JPG,2,7,Deciduous,SH,4,9/20/19,12/7/19,9/25/19
39638592,1,OPOSSUM,02_07_SH_000004.JPG,02_07_SH_000005.JPG,02_07_SH_000006.JPG,2,7,Deciduous,SH,4,9/20/19,12/7/19,9/25/19
39638600,1,SQUIRRELGRAY,02_07_SH_000007.JPG,02_07_SH_000008.JPG,02_07_SH_000009.JPG,2,7,Deciduous,SH,4,9/20/19,12/7/19,9/25/19
39638606,1,SQUIRRELGRAY,02_07_SH_000010.JPG,02_07_SH_000011.JPG,02_07_SH_000012.JPG,2,7,Deciduous,SH,4,9/20/19,12/7/19,9/25/19
39638615,1,RACCOON,02_07_SH_000013.JPG,02_07_SH_000014.JPG,02_07_SH_000015.JPG,2,7,Deciduous,SH,4,9/20/19,12/7/19,9/25/19
39638627,2,BLACKBEAR,02_07_SH_000016.JPG,02_07_SH_000017.JPG,02_07_SH_000018.JPG,2,7,Deciduous,SH,4,9/20/19,12/7/19,9/25/19
39638631,1,BLACKBEAR,02_07_SH_000019.JPG,02_07_SH_000020.JPG,02_07_SH_000021.JPG,2,7,Deciduous,SH,4,9/20/19,12/7/19,9/25/19
37156528,1,HUMAN,02_42_WHIP_000001.JPG,02_42_WHIP_000002.JPG,02_42_WHIP_000003.JPG,2,42,Pine,WHIP,2,1/24/19,5/13/19,4/22/19
37156529,1,DEERWHITETAILED,02_42_WHIP_000004.JPG,02_42_WHIP_000005.JPG,02_42_WHIP_000006.JPG,2,42,Pine,WHIP,2,1/24/19,5/13/19,4/22/19
37156530,1,FISHER,02_42_WHIP_000007.JPG,02_42_WHIP_000008.JPG,02_42_WHIP_000009.JPG,2,42,Pine,WHIP,2,1/24/19,5/13/19,4/22/19
37156531,1,DEERWHITETAILED,02_42_WHIP_000010.JPG,02_42_WHIP_000011.JPG,02_42_WHIP_000012.JPG,2,42,Pine,WHIP,2,1/24/19,5/13/19,4/22/19
37156532,1,DEERWHITETAILED,02_42_WHIP_000013.JPG,02_42_WHIP_000014.JPG,02_42_WHIP_000015.JPG,2,42,Pine,WHIP,2,1/24/19,5/13/19,4/22/19
37156533,1,NOTHINGHERE,02_42_WHIP_000016.JPG,02_42_WHIP_000017.JPG,02_42_WHIP_000018.JPG,2,42,Pine,WHIP,2,1/24/19,5/13/19,4/22/19
37156534,1,NOTHINGHERE,02_42_WHIP_000019.JPG,02_42_WHIP_000020.JPG,NA,2,42,Pine,WHIP,2,1/24/19,5/13/19,4/22/19
37156535,1,DEERWHITETAILED,02_42_WHIP_000022.JPG,02_42_WHIP_000023.JPG,NA,2,42,Pine,WHIP,2,1/24/19,5/13/19,4/22/19
37156536,1,DEERWHITETAILED,02_42_WHIP_000025.JPG,02_42_WHIP_000026.JPG,NA,2,42,Pine,WHIP,2,1/24/19,5/13/19,4/22/19
37156537,1,DEERWHITETAILED,02_42_WHIP_000028.JPG,02_42_WHIP_000029.JPG,NA,2,42,Pine,WHIP,2,1/24/19,5/13/19,4/22/19
37156538,1,DEERWHITETAILED,02_42_WHIP_000034.JPG,02_42_WHIP_000035.JPG,02_42_WHIP_000036.JPG,2,42,Pine,WHIP,2,1/24/19,5/13/19,4/22/19
37156539,1,NOTHINGHERE,02_42_WHIP_000037.JPG,02_42_WHIP_000038.JPG,02_42_WHIP_000039.JPG,2,42,Pine,WHIP,2,1/24/19,5/13/19,4/22/19
37156540,1,DEERWHITETAILED,02_42_WHIP_000040.JPG,02_42_WHIP_000041.JPG,02_42_WHIP_000042.JPG,2,42,Pine,WHIP,2,1/24/19,5/13/19,4/22/19
37156541,1,SOMETHINGHERE,02_42_WHIP_000043.JPG,02_42_WHIP_000044.JPG,02_42_WHIP_000045.JPG,2,42,Pine,WHIP,2,1/24/19,5/13/19,4/22/19
37156542,1,DEERWHITETAILED,02_42_WHIP_000046.JPG,02_42_WHIP_000047.JPG,02_42_WHIP_000048.JPG,2,42,Pine,WHIP,2,1/24/19,5/13/19,4/22/19
37156543,1,DEERWHITETAILED,02_42_WHIP_000049.JPG,02_42_WHIP_000050.JPG,02_42_WHIP_000051.JPG,2,42,Pine,WHIP,2,1/24/19,5/13/19,4/22/19
37156544,1,HUMAN,02_42_WHIP_000052.JPG,02_42_WHIP_000053.JPG,02_42_WHIP_000054.JPG,2,42,Pine,WHIP,2,1/24/19,5/13/19,4/22/19
37156545,1,HUMAN,02_42_WHIP_000055.JPG,02_42_WHIP_000056.JPG,02_42_WHIP_000057.JPG,2,42,Pine,WHIP,2,1/24/19,5/13/19,4/22/19
37156546,1,HUMAN,02_42_WHIP_000058.JPG,02_42_WHIP_000059.JPG,02_42_WHIP_000060.JPG,2,42,Pine,WHIP,2,1/24/19,5/13/19,4/22/19
37156547,1,DEERWHITETAILED,02_42_WHIP_000061.JPG,02_42_WHIP_000062.JPG,02_42_WHIP_000063.JPG,2,42,Pine,WHIP,2,1/24/19,5/13/19,4/22/19
37156548,1,DEERWHITETAILED,02_42_WHIP_000064.JPG,02_42_WHIP_000065.JPG,02_42_WHIP_000066.JPG,2,42,Pine,WHIP,2,1/24/19,5/13/19,4/22/19
37156550,1,DEERWHITETAILED,02_42_WHIP_000067.JPG,02_42_WHIP_000068.JPG,02_42_WHIP_000069.JPG,2,42,Pine,WHIP,2,1/24/19,5/13/19,4/22/19
37156551,1,DEERWHITETAILED,02_42_WHIP_000070.JPG,02_42_WHIP_000071.JPG,02_42_WHIP_000072.JPG,2,42,Pine,WHIP,2,1/24/19,5/13/19,4/22/19
37156552,1,RACCOON,02_42_WHIP_000073.JPG,02_42_WHIP_000074.JPG,02_42_WHIP_000075.JPG,2,42,Pine,WHIP,2,1/24/19,5/13/19,4/22/19
37156553,1,DEERWHITETAILED,02_42_WHIP_000076.JPG,02_42_WHIP_000077.JPG,02_42_WHIP_000078.JPG,2,42,Pine,WHIP,2,1/24/19,5/13/19,4/22/19
37156554,2,SOMETHINGHERE,02_42_WHIP_000079.JPG,02_42_WHIP_000080.JPG,02_42_WHIP_000081.JPG,2,42,Pine,WHIP,2,1/24/19,5/13/19,4/22/19
37156555,1,RACCOON,02_42_WHIP_000082.JPG,02_42_WHIP_000083.JPG,02_42_WHIP_000084.JPG,2,42,Pine,WHIP,2,1/24/19,5/13/19,4/22/19
37156556,2,SOMETHINGHERE,02_42_WHIP_000085.JPG,02_42_WHIP_000086.JPG,02_42_WHIP_000087.JPG,2,42,Pine,WHIP,2,1/24/19,5/13/19,4/22/19
37156557,1,DEERWHITETAILED,02_42_WHIP_000088.JPG,02_42_WHIP_000089.JPG,02_42_WHIP_000090.JPG,2,42,Pine,WHIP,2,1/24/19,5/13/19,4/22/19
37156558,1,DEERWHITETAILED,02_42_WHIP_000091.JPG,02_42_WHIP_000092.JPG,02_42_WHIP_000093.JPG,2,42,Pine,WHIP,2,1/24/19,5/13/19,4/22/19
37156559,1,TURKEY,02_42_WHIP_000094.JPG,02_42_WHIP_000095.JPG,NA,2,42,Pine,WHIP,2,1/24/19,5/13/19,4/22/19
37156560,1,COYOTE,02_42_WHIP_000097.JPG,02_42_WHIP_000098.JPG,02_42_WHIP_000099.JPG,2,42,Pine,WHIP,2,1/24/19,5/13/19,4/22/19
37156561,1,DEERWHITETAILED,02_42_WHIP_000100.JPG,02_42_WHIP_000101.JPG,02_42_WHIP_000102.JPG,2,42,Pine,WHIP,2,1/24/19,5/13/19,4/22/19
37156562,1,NOTHINGHERE,02_42_WHIP_000103.JPG,02_42_WHIP_000104.JPG,02_42_WHIP_000105.JPG,2,42,Pine,WHIP,2,1/24/19,5/13/19,4/22/19
37818668,1,COTTONTAILRABBIT,03_05_SH_000001.JPG,03_05_SH_000002.JPG,03_05_SH_000003.JPG,3,5,Deciduous,SH,1,11/14/18,2/11/19,11/28/18
31428286,1,NOTHINGHERE,03_05_SH_000001.JPG,03_05_SH_000002.JPG,03_05_SH_000003.JPG,3,5,Deciduous,SH,3,5/10/19,8/31/19,8/31/19
37818669,1,NOTHINGHERE,03_05_SH_000004.JPG,03_05_SH_000005.JPG,03_05_SH_000006.JPG,3,5,Deciduous,SH,1,11/14/18,2/11/19,11/28/18
31428287,2,NOTHINGHERE,03_05_SH_000004.JPG,03_05_SH_000005.JPG,03_05_SH_000006.JPG,3,5,Deciduous,SH,3,5/10/19,8/31/19,8/31/19
31428288,1,NOTHINGHERE,03_05_SH_000007.JPG,03_05_SH_000008.JPG,03_05_SH_000009.JPG,3,5,Deciduous,SH,1,11/14/18,2/11/19,11/28/18
37818670,2,COTTONTAILRABBIT,03_05_SH_000007.JPG,03_05_SH_000008.JPG,03_05_SH_000009.JPG,3,5,Deciduous,SH,3,5/10/19,8/31/19,8/31/19
31428289,1,NOTHINGHERE,03_05_SH_000010.JPG,03_05_SH_000011.JPG,03_05_SH_000012.JPG,3,5,Deciduous,SH,1,11/14/18,2/11/19,11/28/18
37818671,1,COTTONTAILRABBIT,03_05_SH_000010.JPG,03_05_SH_000011.JPG,03_05_SH_000012.JPG,3,5,Deciduous,SH,3,5/10/19,8/31/19,8/31/19
37818851,1,DEERWHITETAILED,03_05_SH_000013.JPG,03_05_SH_000014.JPG,03_05_SH_000015.JPG,3,5,Deciduous,SH,1,11/14/18,2/11/19,11/28/18
31428290,1,DEERWHITETAILED,03_05_SH_000013.JPG,03_05_SH_000014.JPG,03_05_SH_000015.JPG,3,5,Deciduous,SH,3,5/10/19,8/31/19,8/31/19
37820265,1,DOMESTICCAT,03_05_SH_000028.JPG,03_05_SH_000029.JPG,NA,3,5,Deciduous,SH,3,5/10/19,8/31/19,8/31/19
37814462,1,NOTHINGHERE,03_05_SH_000043.JPG,03_05_SH_000044.JPG,NA,3,5,Deciduous,SH,3,5/10/19,8/31/19,8/31/19
37814454,1,NOTHINGHERE,03_05_SH_000049.JPG,03_05_SH_000050.JPG,NA,3,5,Deciduous,SH,3,5/10/19,8/31/19,8/31/19
37814455,1,NOTHINGHERE,03_05_SH_000073.JPG,03_05_SH_000074.JPG,NA,3,5,Deciduous,SH,3,5/10/19,8/31/19,8/31/19
37814456,1,NOTHINGHERE,03_05_SH_000082.JPG,03_05_SH_000083.JPG,NA,3,5,Deciduous,SH,3,5/10/19,8/31/19,8/31/19
37814457,1,NOTHINGHERE,03_05_SH_000097.JPG,03_05_SH_000100.JPG,NA,3,5,Deciduous,SH,3,5/10/19,8/31/19,8/31/19
37814458,1,NOTHINGHERE,03_05_SH_000118.JPG,03_05_SH_000119.JPG,NA,3,5,Deciduous,SH,3,5/10/19,8/31/19,8/31/19
37156563,1,NOTHINGHERE,03_07_SH_000001.JPG,03_07_SH_000002.JPG,03_07_SH_000003.JPG,3,7,Deciduous,SH,2,2/11/19,5/10/19,5/10/19
37156564,1,TURKEY,03_07_SH_000004.JPG,03_07_SH_000005.JPG,03_07_SH_000006.JPG,3,7,Deciduous,SH,2,2/11/19,5/10/19,5/10/19
37156565,1,DEERWHITETAILED,03_07_SH_000007.JPG,03_07_SH_000008.JPG,03_07_SH_000009.JPG,3,7,Deciduous,SH,2,2/11/19,5/10/19,5/10/19
37156566,1,DEERWHITETAILED,03_07_SH_000010.JPG,03_07_SH_000011.JPG,03_07_SH_000012.JPG,3,7,Deciduous,SH,2,2/11/19,5/10/19,5/10/19
37156567,1,DEERWHITETAILED,03_07_SH_000013.JPG,03_07_SH_000014.JPG,03_07_SH_000015.JPG,3,7,Deciduous,SH,2,2/11/19,5/10/19,5/10/19
37156568,2,NOTHINGHERE,03_07_SH_000016.JPG,03_07_SH_000017.JPG,03_07_SH_000018.JPG,3,7,Deciduous,SH,2,2/11/19,5/10/19,5/10/19
37156569,1,DEERWHITETAILED,03_07_SH_000019.JPG,03_07_SH_000020.JPG,03_07_SH_000021.JPG,3,7,Deciduous,SH,2,2/11/19,5/10/19,5/10/19
37156570,1,DEERWHITETAILED,03_07_SH_000022.JPG,03_07_SH_000023.JPG,03_07_SH_000024.JPG,3,7,Deciduous,SH,2,2/11/19,5/10/19,5/10/19
37156571,1,DEERWHITETAILED,03_07_SH_000025.JPG,03_07_SH_000026.JPG,03_07_SH_000027.JPG,3,7,Deciduous,SH,2,2/11/19,5/10/19,5/10/19
37156572,1,DEERWHITETAILED,03_07_SH_000028.JPG,03_07_SH_000029.JPG,03_07_SH_000030.JPG,3,7,Deciduous,SH,2,2/11/19,5/10/19,5/10/19
37156573,1,DEERWHITETAILED,03_07_SH_000031.JPG,03_07_SH_000032.JPG,03_07_SH_000033.JPG,3,7,Deciduous,SH,2,2/11/19,5/10/19,5/10/19
37156574,1,NOTHINGHERE,03_07_SH_000036.JPG,03_07_SH_000034.JPG,03_07_SH_000035.JPG,3,7,Deciduous,SH,2,2/11/19,5/10/19,5/10/19
37156575,1,NOTHINGHERE,03_07_SH_000037.JPG,03_07_SH_000038.JPG,03_07_SH_000039.JPG,3,7,Deciduous,SH,2,2/11/19,5/10/19,5/10/19
37156576,1,NOTHINGHERE,03_07_SH_000040.JPG,03_07_SH_000041.JPG,03_07_SH_000042.JPG,3,7,Deciduous,SH,2,2/11/19,5/10/19,5/10/19
37156577,1,NOTHINGHERE,03_07_SH_000043.JPG,03_07_SH_000044.JPG,03_07_SH_000045.JPG,3,7,Deciduous,SH,2,2/11/19,5/10/19,5/10/19
37156578,1,NOTHINGHERE,03_07_SH_000046.JPG,03_07_SH_000047.JPG,03_07_SH_000048.JPG,3,7,Deciduous,SH,2,2/11/19,5/10/19,5/10/19
37156579,1,NOTHINGHERE,03_07_SH_000049.JPG,03_07_SH_000050.JPG,03_07_SH_000051.JPG,3,7,Deciduous,SH,2,2/11/19,5/10/19,5/10/19
37156580,1,NOTHINGHERE,03_07_SH_000052.JPG,03_07_SH_000053.JPG,03_07_SH_000054.JPG,3,7,Deciduous,SH,2,2/11/19,5/10/19,5/10/19
37156581,2,SOMETHINGHERE,03_07_SH_000055.JPG,03_07_SH_000056.JPG,03_07_SH_000057.JPG,3,7,Deciduous,SH,2,2/11/19,5/10/19,5/10/19
37156582,1,DEERWHITETAILED,03_07_SH_000058.JPG,03_07_SH_000059.JPG,03_07_SH_000060.JPG,3,7,Deciduous,SH,2,2/11/19,5/10/19,5/10/19
37156583,1,DEERWHITETAILED,03_07_SH_000061.JPG,03_07_SH_000062.JPG,03_07_SH_000063.JPG,3,7,Deciduous,SH,2,2/11/19,5/10/19,5/10/19
37156584,1,DEERWHITETAILED,03_07_SH_000064.JPG,03_07_SH_000065.JPG,03_07_SH_000066.JPG,3,7,Deciduous,SH,2,2/11/19,5/10/19,5/10/19
37156585,1,DEERWHITETAILED,03_07_SH_000067.JPG,03_07_SH_000068.JPG,03_07_SH_000069.JPG,3,7,Deciduous,SH,2,2/11/19,5/10/19,5/10/19
37156586,1,DEERWHITETAILED,03_07_SH_000070.JPG,03_07_SH_000071.JPG,03_07_SH_000072.JPG,3,7,Deciduous,SH,2,2/11/19,5/10/19,5/10/19
37156587,1,NOTHINGHERE,03_07_SH_000073.JPG,03_07_SH_000074.JPG,03_07_SH_000075.JPG,3,7,Deciduous,SH,2,2/11/19,5/10/19,5/10/19
37156588,1,DEERWHITETAILED,03_07_SH_000076.JPG,03_07_SH_000077.JPG,03_07_SH_000078.JPG,3,7,Deciduous,SH,2,2/11/19,5/10/19,5/10/19
37156589,2,DEERWHITETAILED,03_07_SH_000079.JPG,03_07_SH_000080.JPG,03_07_SH_000081.JPG,3,7,Deciduous,SH,2,2/11/19,5/10/19,5/10/19
37156590,1,DEERWHITETAILED,03_07_SH_000082.JPG,03_07_SH_000083.JPG,03_07_SH_000084.JPG,3,7,Deciduous,SH,2,2/11/19,5/10/19,5/10/19
37156591,1,DEERWHITETAILED,03_07_SH_000085.JPG,03_07_SH_000086.JPG,03_07_SH_000087.JPG,3,7,Deciduous,SH,2,2/11/19,5/10/19,5/10/19
37156592,1,DEERWHITETAILED,03_07_SH_000088.JPG,03_07_SH_000089.JPG,03_07_SH_000090.JPG,3,7,Deciduous,SH,2,2/11/19,5/10/19,5/10/19
37156593,1,DEERWHITETAILED,03_07_SH_000091.JPG,03_07_SH_000092.JPG,03_07_SH_000093.JPG,3,7,Deciduous,SH,2,2/11/19,5/10/19,5/10/19
37156594,1,DEERWHITETAILED,03_07_SH_000094.JPG,03_07_SH_000095.JPG,03_07_SH_000096.JPG,3,7,Deciduous,SH,2,2/11/19,5/10/19,5/10/19
37156595,1,DEERWHITETAILED,03_07_SH_000097.JPG,03_07_SH_000098.JPG,03_07_SH_000099.JPG,3,7,Deciduous,SH,2,2/11/19,5/10/19,5/10/19
37156596,1,DEERWHITETAILED,03_07_SH_000100.JPG,03_07_SH_000101.JPG,03_07_SH_000102.JPG,3,7,Deciduous,SH,2,2/11/19,5/10/19,5/10/19
37156597,1,DEERWHITETAILED,03_07_SH_000103.JPG,03_07_SH_000104.JPG,03_07_SH_000105.JPG,3,7,Deciduous,SH,2,2/11/19,5/10/19,5/10/19
37156598,1,DEERWHITETAILED,03_07_SH_000109.JPG,03_07_SH_000110.JPG,03_07_SH_000111.JPG,3,7,Deciduous,SH,2,2/11/19,5/10/19,5/10/19
37156599,1,DEERWHITETAILED,03_07_SH_000112.JPG,03_07_SH_000113.JPG,03_07_SH_000114.JPG,3,7,Deciduous,SH,2,2/11/19,5/10/19,5/10/19
37156600,1,DEERWHITETAILED,03_07_SH_000115.JPG,03_07_SH_000116.JPG,03_07_SH_000117.JPG,3,7,Deciduous,SH,2,2/11/19,5/10/19,5/10/19
37156601,2,DEERWHITETAILED,03_07_SH_000118.JPG,03_07_SH_000119.JPG,03_07_SH_000120.JPG,3,7,Deciduous,SH,2,2/11/19,5/10/19,5/10/19
37156602,1,DEERWHITETAILED,03_07_SH_000121.JPG,03_07_SH_000122.JPG,03_07_SH_000123.JPG,3,7,Deciduous,SH,2,2/11/19,5/10/19,5/10/19
37156603,1,NOTHINGHERE,03_07_SH_000124.JPG,03_07_SH_000125.JPG,03_07_SH_000126.JPG,3,7,Deciduous,SH,2,2/11/19,5/10/19,5/10/19
37156604,1,SOMETHINGHERE,03_07_SH_000127.JPG,03_07_SH_000128.JPG,03_07_SH_000129.JPG,3,7,Deciduous,SH,2,2/11/19,5/10/19,5/10/19
39638704,1,HUMAN,03_39_WF_000001.JPG,03_39_WF_000002.JPG,03_39_WF_000003.JPG,3,39,Pine,WF,4,9/29/19,12/6/19,12/6/19
39638994,1,HUMAN,03_39_WF_000004.JPG,03_39_WF_000005.JPG,03_39_WF_000006.JPG,3,39,Pine,WF,4,9/29/19,12/6/19,12/6/19
39639088,1,BLUEJAY,03_39_WF_000007.JPG,03_39_WF_000008.JPG,03_39_WF_000009.JPG,3,39,Pine,WF,4,9/29/19,12/6/19,12/6/19
39639315,1,COYOTE,03_39_WF_000010.JPG,03_39_WF_000011.JPG,03_39_WF_000012.JPG,3,39,Pine,WF,4,9/29/19,12/6/19,12/6/19
39639501,1,TURKEY,03_39_WF_000014.JPG,03_39_WF_000013.JPG,03_39_WF_000015.JPG,3,39,Pine,WF,4,9/29/19,12/6/19,12/6/19
39639522,1,DEERWHITETAILED,03_39_WF_000016.JPG,03_39_WF_000017.JPG,03_39_WF_000018.JPG,3,39,Pine,WF,4,9/29/19,12/6/19,12/6/19
39639604,1,TURKEY,03_39_WF_000019.JPG,03_39_WF_000020.JPG,03_39_WF_000021.JPG,3,39,Pine,WF,4,9/29/19,12/6/19,12/6/19
39639648,1,NOTHINGHERE,03_39_WF_000022.JPG,03_39_WF_000024.JPG,03_39_WF_000023.JPG,3,39,Pine,WF,4,9/29/19,12/6/19,12/6/19
39639884,1,COYOTE,03_39_WF_000025.JPG,03_39_WF_000026.JPG,03_39_WF_000027.JPG,3,39,Pine,WF,4,9/29/19,12/6/19,12/6/19
39639903,1,DEERWHITETAILED,03_39_WF_000028.JPG,03_39_WF_000029.JPG,03_39_WF_000030.JPG,3,39,Pine,WF,4,9/29/19,12/6/19,12/6/19
39639949,1,DEERWHITETAILED,03_39_WF_000031.JPG,03_39_WF_000032.JPG,03_39_WF_000033.JPG,3,39,Pine,WF,4,9/29/19,12/6/19,12/6/19
39639950,1,DEERWHITETAILED,03_39_WF_000034.JPG,03_39_WF_000035.JPG,03_39_WF_000036.JPG,3,39,Pine,WF,4,9/29/19,12/6/19,12/6/19
39640010,1,DEERWHITETAILED,03_39_WF_000037.JPG,03_39_WF_000038.JPG,03_39_WF_000039.JPG,3,39,Pine,WF,4,9/29/19,12/6/19,12/6/19
39640077,1,NOTHINGHERE,03_39_WF_000040.JPG,03_39_WF_000041.JPG,03_39_WF_000042.JPG,3,39,Pine,WF,4,9/29/19,12/6/19,12/6/19
39640085,2,HUMAN,03_39_WF_000043.JPG,03_39_WF_000044.JPG,03_39_WF_000045.JPG,3,39,Pine,WF,4,9/29/19,12/6/19,12/6/19
40303358,1,NOTHINGHERE,04_12_BC_000001.JPG,04_12_BC_000002.JPG,04_12_BC_000003.JPG,4,12,Deciduous,BC,4,10/19/19,2/2/20,12/15/19
40303361,2,HUMAN,04_12_BC_000004.JPG,04_12_BC_000005.JPG,04_12_BC_000006.JPG,4,12,Deciduous,BC,4,10/19/19,2/2/20,12/15/19
40303369,2,SQUIRRELGRAY,04_12_BC_000007.JPG,04_12_BC_000008.JPG,04_12_BC_000009.JPG,4,12,Deciduous,BC,4,10/19/19,2/2/20,12/15/19
40303372,2,SQUIRRELGRAY,04_12_BC_000010.JPG,04_12_BC_000011.JPG,04_12_BC_000012.JPG,4,12,Deciduous,BC,4,10/19/19,2/2/20,12/15/19
40303373,1,SQUIRRELGRAY,04_12_BC_000013.JPG,04_12_BC_000014.JPG,04_12_BC_000015.JPG,4,12,Deciduous,BC,4,10/19/19,2/2/20,12/15/19
40303374,1,DEERWHITETAILED,04_12_BC_000016.JPG,04_12_BC_000017.JPG,04_12_BC_000018.JPG,4,12,Deciduous,BC,4,10/19/19,2/2/20,12/15/19
40303375,1,DEERWHITETAILED,04_12_BC_000019.JPG,04_12_BC_000020.JPG,04_12_BC_000021.JPG,4,12,Deciduous,BC,4,10/19/19,2/2/20,12/15/19
40303376,1,DEERWHITETAILED,04_12_BC_000022.JPG,04_12_BC_000023.JPG,04_12_BC_000024.JPG,4,12,Deciduous,BC,4,10/19/19,2/2/20,12/15/19
40303377,1,DEERWHITETAILED,04_12_BC_000025.JPG,04_12_BC_000026.JPG,04_12_BC_000027.JPG,4,12,Deciduous,BC,4,10/19/19,2/2/20,12/15/19
40303378,1,SQUIRRELGRAY,04_12_BC_000028.JPG,04_12_BC_000029.JPG,04_12_BC_000030.JPG,4,12,Deciduous,BC,4,10/19/19,2/2/20,12/15/19
40303379,1,SQUIRRELGRAY,04_12_BC_000031.JPG,04_12_BC_000032.JPG,04_12_BC_000033.JPG,4,12,Deciduous,BC,4,10/19/19,2/2/20,12/15/19
40303382,1,SQUIRRELGRAY,04_12_BC_000034.JPG,04_12_BC_000035.JPG,04_12_BC_000036.JPG,4,12,Deciduous,BC,4,10/19/19,2/2/20,12/15/19
40303383,1,SQUIRRELGRAY,04_12_BC_000037.JPG,04_12_BC_000038.JPG,04_12_BC_000039.JPG,4,12,Deciduous,BC,4,10/19/19,2/2/20,12/15/19
40303384,1,NOTHINGHERE,04_12_BC_000040.JPG,04_12_BC_000041.JPG,04_12_BC_000042.JPG,4,12,Deciduous,BC,4,10/19/19,2/2/20,12/15/19
40303387,1,DEERWHITETAILED,04_12_BC_000043.JPG,04_12_BC_000044.JPG,04_12_BC_000045.JPG,4,12,Deciduous,BC,4,10/19/19,2/2/20,12/15/19
40303388,1,DEERWHITETAILED,04_12_BC_000046.JPG,04_12_BC_000047.JPG,04_12_BC_000048.JPG,4,12,Deciduous,BC,4,10/19/19,2/2/20,12/15/19
40303396,1,SQUIRRELGRAY,04_12_BC_000049.JPG,04_12_BC_000050.JPG,04_12_BC_000051.JPG,4,12,Deciduous,BC,4,10/19/19,2/2/20,12/15/19
40303407,1,SQUIRRELGRAY,04_12_BC_000052.JPG,04_12_BC_000053.JPG,04_12_BC_000054.JPG,4,12,Deciduous,BC,4,10/19/19,2/2/20,12/15/19
40303408,1,OTHERSMALLMAMMAL,04_12_BC_000055.JPG,04_12_BC_000056.JPG,04_12_BC_000057.JPG,4,12,Deciduous,BC,4,10/19/19,2/2/20,12/15/19
40303410,1,SQUIRRELGRAY,04_12_BC_000058.JPG,04_12_BC_000059.JPG,04_12_BC_000060.JPG,4,12,Deciduous,BC,4,10/19/19,2/2/20,12/15/19
40303412,1,OTHERSMALLMAMMAL,04_12_BC_000061.JPG,04_12_BC_000062.JPG,04_12_BC_000063.JPG,4,12,Deciduous,BC,4,10/19/19,2/2/20,12/15/19
40303413,1,NOTHINGHERE,04_12_BC_000064.JPG,04_12_BC_000065.JPG,04_12_BC_000066.JPG,4,12,Deciduous,BC,4,10/19/19,2/2/20,12/15/19
40303414,1,RACCOON,04_12_BC_000067.JPG,04_12_BC_000068.JPG,04_12_BC_000069.JPG,4,12,Deciduous,BC,4,10/19/19,2/2/20,12/15/19
40303415,1,SQUIRRELGRAY,04_12_BC_000070.JPG,04_12_BC_000071.JPG,04_12_BC_000072.JPG,4,12,Deciduous,BC,4,10/19/19,2/2/20,12/15/19
40303419,1,SQUIRRELGRAY,04_12_BC_000073.JPG,04_12_BC_000074.JPG,04_12_BC_000075.JPG,4,12,Deciduous,BC,4,10/19/19,2/2/20,12/15/19
40303423,1,RACCOON,04_12_BC_000076.JPG,04_12_BC_000077.JPG,04_12_BC_000078.JPG,4,12,Deciduous,BC,4,10/19/19,2/2/20,12/15/19
31428291,1,NOTHINGHERE,04_26_WF_000001.JPG,04_26_WF_000002.JPG,04_26_WF_000003.JPG,4,26,Pine,WF,1,11/17/18,1/31/19,1/10/19
31428292,1,NOTHINGHERE,04_26_WF_000004.JPG,04_26_WF_000005.JPG,04_26_WF_000006.JPG,4,26,Pine,WF,1,11/17/18,1/31/19,1/10/19
31428293,1,NOTHINGHERE,04_26_WF_000007.JPG,04_26_WF_000008.JPG,04_26_WF_000009.JPG,4,26,Pine,WF,1,11/17/18,1/31/19,1/10/19
31428294,1,NOTHINGHERE,04_26_WF_000010.JPG,04_26_WF_000011.JPG,04_26_WF_000012.JPG,4,26,Pine,WF,1,11/17/18,1/31/19,1/10/19
31428295,1,TURKEY,04_26_WF_000013.JPG,04_26_WF_000014.JPG,04_26_WF_000015.JPG,4,26,Pine,WF,1,11/17/18,1/31/19,1/10/19
31428296,1,NOTHINGHERE,04_26_WF_000016.JPG,04_26_WF_000017.JPG,04_26_WF_000018.JPG,4,26,Pine,WF,1,11/17/18,1/31/19,1/10/19
31428297,1,DEERWHITETAILED,04_26_WF_000019.JPG,04_26_WF_000020.JPG,04_26_WF_000021.JPG,4,26,Pine,WF,1,11/17/18,1/31/19,1/10/19
31428298,1,DEERWHITETAILED,04_26_WF_000022.JPG,04_26_WF_000023.JPG,04_26_WF_000024.JPG,4,26,Pine,WF,1,11/17/18,1/31/19,1/10/19
31428299,1,DEERWHITETAILED,04_26_WF_000025.JPG,04_26_WF_000026.JPG,04_26_WF_000027.JPG,4,26,Pine,WF,1,11/17/18,1/31/19,1/10/19
31428300,1,DEERWHITETAILED,04_26_WF_000028.JPG,04_26_WF_000029.JPG,04_26_WF_000030.JPG,4,26,Pine,WF,1,11/17/18,1/31/19,1/10/19
31428301,1,COYOTE,04_26_WF_000031.JPG,04_26_WF_000032.JPG,04_26_WF_000033.JPG,4,26,Pine,WF,1,11/17/18,1/31/19,1/10/19
31428302,1,DEERWHITETAILED,04_26_WF_000034.JPG,04_26_WF_000035.JPG,04_26_WF_000036.JPG,4,26,Pine,WF,1,11/17/18,1/31/19,1/10/19
31428303,1,DOMESTICDOG,04_26_WF_000037.JPG,04_26_WF_000038.JPG,04_26_WF_000039.JPG,4,26,Pine,WF,1,11/17/18,1/31/19,1/10/19
31428304,1,COYOTE,04_26_WF_000040.JPG,04_26_WF_000041.JPG,04_26_WF_000042.JPG,4,26,Pine,WF,1,11/17/18,1/31/19,1/10/19
31428305,1,HUMAN,04_26_WF_000043.JPG,04_26_WF_000044.JPG,04_26_WF_000045.JPG,4,26,Pine,WF,1,11/17/18,1/31/19,1/10/19
31428306,1,COYOTE,04_26_WF_000046.JPG,04_26_WF_000047.JPG,04_26_WF_000048.JPG,4,26,Pine,WF,1,11/17/18,1/31/19,1/10/19
31428307,1,NOTHINGHERE,04_26_WF_000049.JPG,04_26_WF_000050.JPG,04_26_WF_000051.JPG,4,26,Pine,WF,1,11/17/18,1/31/19,1/10/19
37156605,1,NOTHINGHERE,04_36_WF_000001.JPG,04_36_WF_000002.JPG,04_36_WF_000003.JPG,4,36,Pine,WF,2,1/31/19,5/15/19,3/26/19
37156606,1,NOTHINGHERE,04_36_WF_000004.JPG,04_36_WF_000005.JPG,04_36_WF_000006.JPG,4,36,Pine,WF,2,1/31/19,5/15/19,3/26/19
37156607,2,NOTHINGHERE,04_36_WF_000007.JPG,04_36_WF_000008.JPG,04_36_WF_000009.JPG,4,36,Pine,WF,2,1/31/19,5/15/19,3/26/19
37156608,1,NOTHINGHERE,04_36_WF_000010.JPG,04_36_WF_000011.JPG,04_36_WF_000012.JPG,4,36,Pine,WF,2,1/31/19,5/15/19,3/26/19
37156609,1,NOTHINGHERE,04_36_WF_000013.JPG,04_36_WF_000014.JPG,04_36_WF_000015.JPG,4,36,Pine,WF,2,1/31/19,5/15/19,3/26/19
37156610,1,NOTHINGHERE,04_36_WF_000016.JPG,04_36_WF_000017.JPG,04_36_WF_000018.JPG,4,36,Pine,WF,2,1/31/19,5/15/19,3/26/19
37156611,1,DEERWHITETAILED,04_36_WF_000019.JPG,04_36_WF_000020.JPG,04_36_WF_000021.JPG,4,36,Pine,WF,2,1/31/19,5/15/19,3/26/19
37156612,1,DEERWHITETAILED,04_36_WF_000022.JPG,04_36_WF_000023.JPG,04_36_WF_000024.JPG,4,36,Pine,WF,2,1/31/19,5/15/19,3/26/19
37156613,1,DEERWHITETAILED,04_36_WF_000025.JPG,04_36_WF_000026.JPG,04_36_WF_000027.JPG,4,36,Pine,WF,2,1/31/19,5/15/19,3/26/19
37156614,1,DEERWHITETAILED,04_36_WF_000028.JPG,04_36_WF_000029.JPG,04_36_WF_000030.JPG,4,36,Pine,WF,2,1/31/19,5/15/19,3/26/19
37156615,1,DEERWHITETAILED,04_36_WF_000031.JPG,04_36_WF_000032.JPG,04_36_WF_000033.JPG,4,36,Pine,WF,2,1/31/19,5/15/19,3/26/19
37156616,2,NOTHINGHERE,04_36_WF_000034.JPG,04_36_WF_000035.JPG,04_36_WF_000036.JPG,4,36,Pine,WF,2,1/31/19,5/15/19,3/26/19
37156617,1,DEERWHITETAILED,04_36_WF_000037.JPG,04_36_WF_000038.JPG,04_36_WF_000039.JPG,4,36,Pine,WF,2,1/31/19,5/15/19,3/26/19
37156618,1,DEERWHITETAILED,04_36_WF_000040.JPG,04_36_WF_000041.JPG,04_36_WF_000042.JPG,4,36,Pine,WF,2,1/31/19,5/15/19,3/26/19
37156619,1,DEERWHITETAILED,04_36_WF_000043.JPG,04_36_WF_000044.JPG,04_36_WF_000045.JPG,4,36,Pine,WF,2,1/31/19,5/15/19,3/26/19
37156620,1,DEERWHITETAILED,04_36_WF_000046.JPG,04_36_WF_000047.JPG,04_36_WF_000048.JPG,4,36,Pine,WF,2,1/31/19,5/15/19,3/26/19
37156621,1,BLACKBEAR,04_36_WF_000049.JPG,04_36_WF_000050.JPG,04_36_WF_000051.JPG,4,36,Pine,WF,2,1/31/19,5/15/19,3/26/19
37156622,1,DEERWHITETAILED,04_36_WF_000052.JPG,04_36_WF_000053.JPG,04_36_WF_000054.JPG,4,36,Pine,WF,2,1/31/19,5/15/19,3/26/19
37156623,1,SOMETHINGHERE,04_36_WF_000055.JPG,04_36_WF_000056.JPG,04_36_WF_000057.JPG,4,36,Pine,WF,2,1/31/19,5/15/19,3/26/19
37156624,1,DEERWHITETAILED,04_36_WF_000058.JPG,04_36_WF_000059.JPG,04_36_WF_000060.JPG,4,36,Pine,WF,2,1/31/19,5/15/19,3/26/19
37156625,1,DEERWHITETAILED,04_36_WF_000061.JPG,04_36_WF_000062.JPG,04_36_WF_000063.JPG,4,36,Pine,WF,2,1/31/19,5/15/19,3/26/19
37156626,1,DEERWHITETAILED,04_36_WF_000064.JPG,04_36_WF_000065.JPG,04_36_WF_000066.JPG,4,36,Pine,WF,2,1/31/19,5/15/19,3/26/19
37156627,1,DEERWHITETAILED,04_36_WF_000067.JPG,04_36_WF_000068.JPG,04_36_WF_000069.JPG,4,36,Pine,WF,2,1/31/19,5/15/19,3/26/19
37156628,1,SOMETHINGHERE,04_36_WF_000070.JPG,04_36_WF_000071.JPG,04_36_WF_000072.JPG,4,36,Pine,WF,2,1/31/19,5/15/19,3/26/19
37156629,1,DEERWHITETAILED,04_36_WF_000082.JPG,04_36_WF_000083.JPG,NA,4,36,Pine,WF,2,1/31/19,5/15/19,3/26/19
37156630,1,DEERWHITETAILED,04_36_WF_000085.JPG,04_36_WF_000086.JPG,NA,4,36,Pine,WF,2,1/31/19,5/15/19,3/26/19
37156631,1,FISHER,04_36_WF_000088.JPG,04_36_WF_000089.JPG,NA,4,36,Pine,WF,2,1/31/19,5/15/19,3/26/19
37156632,1,FISHER,04_36_WF_000091.JPG,04_36_WF_000092.JPG,04_36_WF_000093.JPG,4,36,Pine,WF,2,1/31/19,5/15/19,3/26/19
37156633,1,DEERWHITETAILED,04_36_WF_000097.JPG,04_36_WF_000098.JPG,NA,4,36,Pine,WF,2,1/31/19,5/15/19,3/26/19
37156634,1,DEERWHITETAILED,04_36_WF_000100.JPG,04_36_WF_000101.JPG,04_36_WF_000102.JPG,4,36,Pine,WF,2,1/31/19,5/15/19,3/26/19
37156635,1,DEERWHITETAILED,04_36_WF_000103.JPG,04_36_WF_000104.JPG,04_36_WF_000105.JPG,4,36,Pine,WF,2,1/31/19,5/15/19,3/26/19
37156636,1,DEERWHITETAILED,04_36_WF_000106.JPG,04_36_WF_000107.JPG,NA,4,36,Pine,WF,2,1/31/19,5/15/19,3/26/19
37156637,1,DEERWHITETAILED,04_36_WF_000109.JPG,04_36_WF_000110.JPG,04_36_WF_000111.JPG,4,36,Pine,WF,2,1/31/19,5/15/19,3/26/19
37156638,1,DEERWHITETAILED,04_36_WF_000112.JPG,04_36_WF_000113.JPG,04_36_WF_000114.JPG,4,36,Pine,WF,2,1/31/19,5/15/19,3/26/19
37156639,2,DEERWHITETAILED,04_36_WF_000115.JPG,04_36_WF_000116.JPG,04_36_WF_000117.JPG,4,36,Pine,WF,2,1/31/19,5/15/19,3/26/19
37156640,1,DEERWHITETAILED,04_36_WF_000118.JPG,04_36_WF_000119.JPG,04_36_WF_000120.JPG,4,36,Pine,WF,2,1/31/19,5/15/19,3/26/19
37156641,1,DEERWHITETAILED,04_36_WF_000121.JPG,04_36_WF_000122.JPG,04_36_WF_000123.JPG,4,36,Pine,WF,2,1/31/19,5/15/19,3/26/19
37156642,1,NOTHINGHERE,04_36_WF_000124.JPG,04_36_WF_000125.JPG,04_36_WF_000126.JPG,4,36,Pine,WF,2,1/31/19,5/15/19,3/26/19
37156643,1,FISHER,04_36_WF_000127.JPG,04_36_WF_000128.JPG,04_36_WF_000129.JPG,4,36,Pine,WF,2,1/31/19,5/15/19,3/26/19
37156644,2,TURKEY,04_36_WF_000130.JPG,04_36_WF_000131.JPG,04_36_WF_000132.JPG,4,36,Pine,WF,2,1/31/19,5/15/19,3/26/19
37156645,1,DEERWHITETAILED,04_36_WF_000133.JPG,04_36_WF_000134.JPG,04_36_WF_000135.JPG,4,36,Pine,WF,2,1/31/19,5/15/19,3/26/19
37156646,1,DEERWHITETAILED,04_36_WF_000136.JPG,04_36_WF_000137.JPG,04_36_WF_000138.JPG,4,36,Pine,WF,2,1/31/19,5/15/19,3/26/19
37156647,1,DEERWHITETAILED,04_36_WF_000139.JPG,04_36_WF_000140.JPG,04_36_WF_000141.JPG,4,36,Pine,WF,2,1/31/19,5/15/19,3/26/19
37156648,1,NOTHINGHERE,04_36_WF_000142.JPG,04_36_WF_000143.JPG,04_36_WF_000144.JPG,4,36,Pine,WF,2,1/31/19,5/15/19,3/26/19
37156649,1,DEERWHITETAILED,04_36_WF_000145.JPG,04_36_WF_000146.JPG,04_36_WF_000147.JPG,4,36,Pine,WF,2,1/31/19,5/15/19,3/26/19
39638712,1,HUMAN,05_34_WF_000001.JPG,05_34_WF_000002.JPG,05_34_WF_000003.JPG,5,34,Pine,WF,4,9/29/19,12/6/19,12/6/19
39638713,1,HUMAN,05_34_WF_000004.JPG,05_34_WF_000005.JPG,05_34_WF_000006.JPG,5,34,Pine,WF,4,9/29/19,12/6/19,12/6/19
39638718,1,DEERWHITETAILED,05_34_WF_000007.JPG,05_34_WF_000008.JPG,05_34_WF_000009.JPG,5,34,Pine,WF,4,9/29/19,12/6/19,12/6/19
39638795,1,RACCOON,05_34_WF_000010.JPG,05_34_WF_000011.JPG,05_34_WF_000012.JPG,5,34,Pine,WF,4,9/29/19,12/6/19,12/6/19
39638860,1,SOMETHINGHERE,05_34_WF_000013.JPG,05_34_WF_000014.JPG,05_34_WF_000015.JPG,5,34,Pine,WF,4,9/29/19,12/6/19,12/6/19
39638963,1,RACCOON,05_34_WF_000016.JPG,05_34_WF_000017.JPG,05_34_WF_000018.JPG,5,34,Pine,WF,4,9/29/19,12/6/19,12/6/19
39638997,1,RACCOON,05_34_WF_000020.JPG,05_34_WF_000019.JPG,05_34_WF_000021.JPG,5,34,Pine,WF,4,9/29/19,12/6/19,12/6/19
39639072,1,TURKEY,05_34_WF_000022.JPG,05_34_WF_000023.JPG,05_34_WF_000024.JPG,5,34,Pine,WF,4,9/29/19,12/6/19,12/6/19
39639086,1,TURKEY,05_34_WF_000025.JPG,05_34_WF_000026.JPG,05_34_WF_000027.JPG,5,34,Pine,WF,4,9/29/19,12/6/19,12/6/19
39639379,1,DEERWHITETAILED,05_34_WF_000028.JPG,05_34_WF_000029.JPG,05_34_WF_000030.JPG,5,34,Pine,WF,4,9/29/19,12/6/19,12/6/19
39639464,1,NOTHINGHERE,05_34_WF_000031.JPG,05_34_WF_000032.JPG,05_34_WF_000033.JPG,5,34,Pine,WF,4,9/29/19,12/6/19,12/6/19
39639590,1,DEERWHITETAILED,05_34_WF_000034.JPG,05_34_WF_000036.JPG,05_34_WF_000035.JPG,5,34,Pine,WF,4,9/29/19,12/6/19,12/6/19
39639599,2,NOTHINGHERE,05_34_WF_000037.JPG,05_34_WF_000038.JPG,05_34_WF_000039.JPG,5,34,Pine,WF,4,9/29/19,12/6/19,12/6/19
39639703,2,DEERWHITETAILED,05_34_WF_000040.JPG,05_34_WF_000041.JPG,05_34_WF_000042.JPG,5,34,Pine,WF,4,9/29/19,12/6/19,12/6/19
39639704,1,DEERWHITETAILED,05_34_WF_000043.JPG,05_34_WF_000044.JPG,05_34_WF_000045.JPG,5,34,Pine,WF,4,9/29/19,12/6/19,12/6/19
39639851,1,DEERWHITETAILED,05_34_WF_000046.JPG,05_34_WF_000047.JPG,05_34_WF_000048.JPG,5,34,Pine,WF,4,9/29/19,12/6/19,12/6/19
39639905,1,DEERWHITETAILED,05_34_WF_000050.JPG,05_34_WF_000049.JPG,NA,5,34,Pine,WF,4,9/29/19,12/6/19,12/6/19
39639943,1,DEERWHITETAILED,05_34_WF_000052.JPG,05_34_WF_000053.JPG,05_34_WF_000054.JPG,5,34,Pine,WF,4,9/29/19,12/6/19,12/6/19
39639959,1,DEERWHITETAILED,05_34_WF_000055.JPG,05_34_WF_000056.JPG,05_34_WF_000057.JPG,5,34,Pine,WF,4,9/29/19,12/6/19,12/6/19
39639968,2,DEERWHITETAILED,05_34_WF_000058.JPG,05_34_WF_000059.JPG,05_34_WF_000060.JPG,5,34,Pine,WF,4,9/29/19,12/6/19,12/6/19
39639989,1,HUMAN,05_34_WF_000062.JPG,05_34_WF_000061.JPG,05_34_WF_000063.JPG,5,34,Pine,WF,4,9/29/19,12/6/19,12/6/19
39640002,1,DEERWHITETAILED,05_34_WF_000064.JPG,05_34_WF_000065.JPG,05_34_WF_000066.JPG,5,34,Pine,WF,4,9/29/19,12/6/19,12/6/19
39640023,1,TURKEY,05_34_WF_000067.JPG,05_34_WF_000068.JPG,05_34_WF_000069.JPG,5,34,Pine,WF,4,9/29/19,12/6/19,12/6/19
39640078,1,TURKEY,05_34_WF_000071.JPG,05_34_WF_000070.JPG,05_34_WF_000072.JPG,5,34,Pine,WF,4,9/29/19,12/6/19,12/6/19
39640086,1,HUMAN,05_34_WF_000073.JPG,05_34_WF_000074.JPG,05_34_WF_000075.JPG,5,34,Pine,WF,4,9/29/19,12/6/19,12/6/19
37818930,1,NOTHINGHERE,06_41_DON_05180001.JPG,06_41_DON_05180002.JPG,06_41_DON_05180003.JPG,6,41,Deciduous,DON,3,5/16/19,9/7/19,9/6/19
37820161,1,DEERWHITETAILED,06_41_DON_05210004.JPG,06_41_DON_05210005.JPG,06_41_DON_05210006.JPG,6,41,Deciduous,DON,3,5/16/19,9/7/19,9/6/19
37820162,2,DEERWHITETAILED,06_41_DON_05210007.JPG,06_41_DON_05210008.JPG,06_41_DON_05210009.JPG,6,41,Deciduous,DON,3,5/16/19,9/7/19,9/6/19
37820164,2,DEERWHITETAILED,06_41_DON_05210010.JPG,06_41_DON_05210011.JPG,06_41_DON_05210012.JPG,6,41,Deciduous,DON,3,5/16/19,9/7/19,9/6/19
37820165,2,DEERWHITETAILED,06_41_DON_05210013.JPG,06_41_DON_05210014.JPG,06_41_DON_05210015.JPG,6,41,Deciduous,DON,3,5/16/19,9/7/19,9/6/19
37820166,1,DEERWHITETAILED,06_41_DON_05210016.JPG,06_41_DON_05210017.JPG,06_41_DON_05210018.JPG,6,41,Deciduous,DON,3,5/16/19,9/7/19,9/6/19
37820201,1,FOXRED,06_41_DON_05210019.JPG,06_41_DON_05210020.JPG,NA,6,41,Deciduous,DON,3,5/16/19,9/7/19,9/6/19
37820245,1,NOTHINGHERE,06_41_DON_05220022.JPG,06_41_DON_05220023.JPG,06_41_DON_05220024.JPG,6,41,Deciduous,DON,3,5/16/19,9/7/19,9/6/19
37820259,1,DEERWHITETAILED,06_41_DON_05220025.JPG,06_41_DON_05220026.JPG,06_41_DON_05220027.JPG,6,41,Deciduous,DON,3,5/16/19,9/7/19,9/6/19
37820314,1,COYOTE,06_41_DON_05240028.JPG,06_41_DON_05240029.JPG,06_41_DON_05240030.JPG,6,41,Deciduous,DON,3,5/16/19,9/7/19,9/6/19
37820331,1,DEERWHITETAILED,06_41_DON_05250031.JPG,06_41_DON_05250032.JPG,06_41_DON_05250033.JPG,6,41,Deciduous,DON,3,5/16/19,9/7/19,9/6/19
37820365,1,NOTHINGHERE,06_41_DON_05270034.JPG,06_41_DON_05270035.JPG,06_41_DON_05270036.JPG,6,41,Deciduous,DON,3,5/16/19,9/7/19,9/6/19
37820380,1,NOTHINGHERE,06_41_DON_05270043.JPG,06_41_DON_05270044.JPG,NA,6,41,Deciduous,DON,3,5/16/19,9/7/19,9/6/19
37820385,1,NOTHINGHERE,06_41_DON_05270046.JPG,06_41_DON_05270047.JPG,06_41_DON_05270048.JPG,6,41,Deciduous,DON,3,5/16/19,9/7/19,9/6/19
37820421,2,NOTHINGHERE,06_41_DON_05280052.JPG,06_41_DON_05280053.JPG,06_41_DON_05280054.JPG,6,41,Deciduous,DON,3,5/16/19,9/7/19,9/6/19
37820449,1,DEERWHITETAILED,06_41_DON_05300055.JPG,06_41_DON_05300056.JPG,06_41_DON_05300057.JPG,6,41,Deciduous,DON,3,5/16/19,9/7/19,9/6/19
37820452,1,DEERWHITETAILED,06_41_DON_05300058.JPG,06_41_DON_05300059.JPG,06_41_DON_05300060.JPG,6,41,Deciduous,DON,3,5/16/19,9/7/19,9/6/19
37820453,2,DEERWHITETAILED,06_41_DON_05300061.JPG,06_41_DON_05300062.JPG,06_41_DON_05300063.JPG,6,41,Deciduous,DON,3,5/16/19,9/7/19,9/6/19
37820454,2,DEERWHITETAILED,06_41_DON_05300064.JPG,06_41_DON_05300065.JPG,06_41_DON_05300066.JPG,6,41,Deciduous,DON,3,5/16/19,9/7/19,9/6/19
37820455,2,NOTHINGHERE,06_41_DON_05300067.JPG,06_41_DON_05300068.JPG,06_41_DON_05300069.JPG,6,41,Deciduous,DON,3,5/16/19,9/7/19,9/6/19
37820457,1,DEERWHITETAILED,06_41_DON_05300070.JPG,06_41_DON_05300071.JPG,06_41_DON_05300072.JPG,6,41,Deciduous,DON,3,5/16/19,9/7/19,9/6/19
37820460,1,DEERWHITETAILED,06_41_DON_05310073.JPG,06_41_DON_05310074.JPG,06_41_DON_05310075.JPG,6,41,Deciduous,DON,3,5/16/19,9/7/19,9/6/19
37820499,1,NOTHINGHERE,06_41_DON_06020076.JPG,06_41_DON_06020077.JPG,06_41_DON_06020078.JPG,6,41,Deciduous,DON,3,5/16/19,9/7/19,9/6/19
37820524,1,TURKEY,06_41_DON_06030079.JPG,06_41_DON_06030080.JPG,06_41_DON_06030081.JPG,6,41,Deciduous,DON,3,5/16/19,9/7/19,9/6/19
37820590,1,DEERWHITETAILED,06_41_DON_06040082.JPG,06_41_DON_06040083.JPG,06_41_DON_06040084.JPG,6,41,Deciduous,DON,3,5/16/19,9/7/19,9/6/19
37820603,2,SOMETHINGHERE,06_41_DON_06050085.JPG,06_41_DON_06050086.JPG,06_41_DON_06050087.JPG,6,41,Deciduous,DON,3,5/16/19,9/7/19,9/6/19
37820732,2,SOMETHINGHERE,06_41_DON_06080088.JPG,06_41_DON_06080089.JPG,06_41_DON_06080090.JPG,6,41,Deciduous,DON,3,5/16/19,9/7/19,9/6/19
37820998,1,DEERWHITETAILED,06_41_DON_06140091.JPG,06_41_DON_06140092.JPG,06_41_DON_06140093.JPG,6,41,Deciduous,DON,3,5/16/19,9/7/19,9/6/19
37821000,2,DEERWHITETAILED,06_41_DON_06140094.JPG,06_41_DON_06140095.JPG,06_41_DON_06140096.JPG,6,41,Deciduous,DON,3,5/16/19,9/7/19,9/6/19
37821171,1,DEERWHITETAILED,06_41_DON_06150097.JPG,06_41_DON_06150098.JPG,06_41_DON_06150099.JPG,6,41,Deciduous,DON,3,5/16/19,9/7/19,9/6/19
37821202,1,COYOTE,06_41_DON_06160100.JPG,06_41_DON_06160101.JPG,06_41_DON_06160102.JPG,6,41,Deciduous,DON,3,5/16/19,9/7/19,9/6/19
37821358,1,DEERWHITETAILED,06_41_DON_06200103.JPG,06_41_DON_06200104.JPG,06_41_DON_06200105.JPG,6,41,Deciduous,DON,3,5/16/19,9/7/19,9/6/19
37821942,1,DEERWHITETAILED,06_41_DON_06300109.JPG,06_41_DON_06300110.JPG,06_41_DON_06300111.JPG,6,41,Deciduous,DON,3,5/16/19,9/7/19,9/6/19
37822056,1,DEERWHITETAILED,06_41_DON_07060112.JPG,06_41_DON_07060113.JPG,06_41_DON_07060114.JPG,6,41,Deciduous,DON,3,5/16/19,9/7/19,9/6/19
37822057,1,DEERWHITETAILED,06_41_DON_07060115.JPG,06_41_DON_07060116.JPG,06_41_DON_07060117.JPG,6,41,Deciduous,DON,3,5/16/19,9/7/19,9/6/19
37822106,1,NOTHINGHERE,06_41_DON_07090118.JPG,06_41_DON_07090119.JPG,06_41_DON_07090120.JPG,6,41,Deciduous,DON,3,5/16/19,9/7/19,9/6/19
37822110,2,DEERWHITETAILED,06_41_DON_07090121.JPG,06_41_DON_07090122.JPG,06_41_DON_07090123.JPG,6,41,Deciduous,DON,3,5/16/19,9/7/19,9/6/19
37822131,1,NOTHINGHERE,06_41_DON_07090124.JPG,06_41_DON_07090125.JPG,06_41_DON_07090126.JPG,6,41,Deciduous,DON,3,5/16/19,9/7/19,9/6/19
37822253,1,DEERWHITETAILED,06_41_DON_07160127.JPG,06_41_DON_07160128.JPG,06_41_DON_07160129.JPG,6,41,Deciduous,DON,3,5/16/19,9/7/19,9/6/19
37822308,1,BLACKBEAR,06_41_DON_07190130.JPG,06_41_DON_07190131.JPG,06_41_DON_07190132.JPG,6,41,Deciduous,DON,3,5/16/19,9/7/19,9/6/19
37822322,1,DEERWHITETAILED,06_41_DON_07190133.JPG,06_41_DON_07190134.JPG,06_41_DON_07190135.JPG,6,41,Deciduous,DON,3,5/16/19,9/7/19,9/6/19
37822324,1,DEERWHITETAILED,06_41_DON_07190136.JPG,06_41_DON_07190137.JPG,06_41_DON_07190138.JPG,6,41,Deciduous,DON,3,5/16/19,9/7/19,9/6/19
37822325,1,DEERWHITETAILED,06_41_DON_07190139.JPG,06_41_DON_07190140.JPG,06_41_DON_07190141.JPG,6,41,Deciduous,DON,3,5/16/19,9/7/19,9/6/19
37822336,1,DEERWHITETAILED,06_41_DON_07200142.JPG,06_41_DON_07200143.JPG,06_41_DON_07200144.JPG,6,41,Deciduous,DON,3,5/16/19,9/7/19,9/6/19
37822368,2,DEERWHITETAILED,06_41_DON_07220145.JPG,06_41_DON_07220146.JPG,06_41_DON_07220147.JPG,6,41,Deciduous,DON,3,5/16/19,9/7/19,9/6/19
37822392,1,DEERWHITETAILED,06_41_DON_07240148.JPG,06_41_DON_07240149.JPG,06_41_DON_07240150.JPG,6,41,Deciduous,DON,3,5/16/19,9/7/19,9/6/19
37822428,1,NOTHINGHERE,06_41_DON_07250151.JPG,06_41_DON_07250152.JPG,06_41_DON_07250153.JPG,6,41,Deciduous,DON,3,5/16/19,9/7/19,9/6/19
37822746,1,DEERWHITETAILED,06_41_DON_08070154.JPG,06_41_DON_08070155.JPG,06_41_DON_08070156.JPG,6,41,Deciduous,DON,3,5/16/19,9/7/19,9/6/19
37822748,1,NOTHINGHERE,06_41_DON_08070157.JPG,06_41_DON_08070158.JPG,06_41_DON_08070159.JPG,6,41,Deciduous,DON,3,5/16/19,9/7/19,9/6/19
37822752,1,DEERWHITETAILED,06_41_DON_08080160.JPG,06_41_DON_08080161.JPG,06_41_DON_08080162.JPG,6,41,Deciduous,DON,3,5/16/19,9/7/19,9/6/19
37822954,1,DEERWHITETAILED,06_41_DON_08130163.JPG,06_41_DON_08130164.JPG,06_41_DON_08130165.JPG,6,41,Deciduous,DON,3,5/16/19,9/7/19,9/6/19
37822959,1,DEERWHITETAILED,06_41_DON_08130166.JPG,06_41_DON_08130167.JPG,06_41_DON_08130168.JPG,6,41,Deciduous,DON,3,5/16/19,9/7/19,9/6/19
37822961,1,DEERWHITETAILED,06_41_DON_08130169.JPG,06_41_DON_08130170.JPG,06_41_DON_08130171.JPG,6,41,Deciduous,DON,3,5/16/19,9/7/19,9/6/19
37823035,1,DEERWHITETAILED,06_41_DON_08180172.JPG,06_41_DON_08180173.JPG,06_41_DON_08180174.JPG,6,41,Deciduous,DON,3,5/16/19,9/7/19,9/6/19
37823276,1,NOTHINGHERE,06_41_DON_08230175.JPG,06_41_DON_08230176.JPG,06_41_DON_08230177.JPG,6,41,Deciduous,DON,3,5/16/19,9/7/19,9/6/19
37823289,1,OTHERBIRD,06_41_DON_08240178.JPG,06_41_DON_08240179.JPG,06_41_DON_08240180.JPG,6,41,Deciduous,DON,3,5/16/19,9/7/19,9/6/19
37823428,1,TURKEY,06_41_DON_08280181.JPG,06_41_DON_08280182.JPG,06_41_DON_08280183.JPG,6,41,Deciduous,DON,3,5/16/19,9/7/19,9/6/19
37823429,1,TURKEY,06_41_DON_08280184.JPG,06_41_DON_08280185.JPG,06_41_DON_08280186.JPG,6,41,Deciduous,DON,3,5/16/19,9/7/19,9/6/19
37823431,1,SOMETHINGHERE,06_41_DON_08280187.JPG,06_41_DON_08280188.JPG,06_41_DON_08280189.JPG,6,41,Deciduous,DON,3,5/16/19,9/7/19,9/6/19
37823432,1,SOMETHINGHERE,06_41_DON_08280190.JPG,06_41_DON_08280191.JPG,06_41_DON_08280192.JPG,6,41,Deciduous,DON,3,5/16/19,9/7/19,9/6/19
37823433,1,NOTHINGHERE,06_41_DON_08280193.JPG,06_41_DON_08280194.JPG,06_41_DON_08280195.JPG,6,41,Deciduous,DON,3,5/16/19,9/7/19,9/6/19
37823435,1,TURKEY,06_41_DON_08280196.JPG,06_41_DON_08280197.JPG,06_41_DON_08280198.JPG,6,41,Deciduous,DON,3,5/16/19,9/7/19,9/6/19
37823458,2,NOTHINGHERE,06_41_DON_08290199.JPG,06_41_DON_08290200.JPG,06_41_DON_08290201.JPG,6,41,Deciduous,DON,3,5/16/19,9/7/19,9/6/19
37823657,1,NOTHINGHERE,06_41_DON_08310202.JPG,06_41_DON_08310203.JPG,06_41_DON_08310204.JPG,6,41,Deciduous,DON,3,5/16/19,9/7/19,9/6/19
37823658,2,NOTHINGHERE,06_41_DON_08310205.JPG,06_41_DON_08310206.JPG,06_41_DON_08310207.JPG,6,41,Deciduous,DON,3,5/16/19,9/7/19,9/6/19
37823716,1,DEERWHITETAILED,06_41_DON_08310208.JPG,06_41_DON_08310209.JPG,06_41_DON_08310210.JPG,6,41,Deciduous,DON,3,5/16/19,9/7/19,9/6/19
37823979,1,DEERWHITETAILED,06_41_DON_09060211.JPG,06_41_DON_09060212.JPG,06_41_DON_09060213.JPG,6,41,Deciduous,DON,3,5/16/19,9/7/19,9/6/19
37818750,1,NOTHINGHERE,07_09_DON_000334.JPG,07_09_DON_000335.JPG,NA,7,9,Deciduous,DON,3,5/16/19,9/7/19,5/17/19
37818752,1,NOTHINGHERE,07_09_DON_000337.JPG,07_09_DON_000338.JPG,NA,7,9,Deciduous,DON,3,5/16/19,9/7/19,5/17/19
37818760,1,NOTHINGHERE,07_09_DON_000355.JPG,07_09_DON_000356.JPG,07_09_DON_000357.JPG,7,9,Deciduous,DON,3,5/16/19,9/7/19,5/17/19
37818761,1,NOTHINGHERE,07_09_DON_000358.JPG,07_09_DON_000359.JPG,NA,7,9,Deciduous,DON,3,5/16/19,9/7/19,5/17/19
37818762,1,NOTHINGHERE,07_09_DON_000361.JPG,07_09_DON_000362.JPG,NA,7,9,Deciduous,DON,3,5/16/19,9/7/19,5/17/19
37818764,1,NOTHINGHERE,07_09_DON_000364.JPG,07_09_DON_000365.JPG,07_09_DON_000366.JPG,7,9,Deciduous,DON,3,5/16/19,9/7/19,5/17/19
37818765,2,NOTHINGHERE,07_09_DON_000367.JPG,07_09_DON_000368.JPG,07_09_DON_000369.JPG,7,9,Deciduous,DON,3,5/16/19,9/7/19,5/17/19
37818767,1,NOTHINGHERE,07_09_DON_000370.JPG,07_09_DON_000371.JPG,07_09_DON_000372.JPG,7,9,Deciduous,DON,3,5/16/19,9/7/19,5/17/19
37818768,1,NOTHINGHERE,07_09_DON_000373.JPG,07_09_DON_000374.JPG,07_09_DON_000375.JPG,7,9,Deciduous,DON,3,5/16/19,9/7/19,5/17/19
37818770,1,NOTHINGHERE,07_09_DON_000376.JPG,07_09_DON_000377.JPG,07_09_DON_000378.JPG,7,9,Deciduous,DON,3,5/16/19,9/7/19,5/17/19
37818771,1,NOTHINGHERE,07_09_DON_000379.JPG,07_09_DON_000380.JPG,07_09_DON_000381.JPG,7,9,Deciduous,DON,3,5/16/19,9/7/19,5/17/19
37818773,1,NOTHINGHERE,07_09_DON_000385.JPG,07_09_DON_000386.JPG,07_09_DON_000387.JPG,7,9,Deciduous,DON,3,5/16/19,9/7/19,5/17/19
37818774,1,NOTHINGHERE,07_09_DON_000388.JPG,07_09_DON_000389.JPG,07_09_DON_000390.JPG,7,9,Deciduous,DON,3,5/16/19,9/7/19,5/17/19
37818775,1,NOTHINGHERE,07_09_DON_000391.JPG,07_09_DON_000392.JPG,07_09_DON_000393.JPG,7,9,Deciduous,DON,3,5/16/19,9/7/19,5/17/19
37818778,1,NOTHINGHERE,07_09_DON_000397.JPG,07_09_DON_000398.JPG,07_09_DON_000399.JPG,7,9,Deciduous,DON,3,5/16/19,9/7/19,5/17/19
37818782,1,NOTHINGHERE,07_09_DON_000409.JPG,07_09_DON_000410.JPG,NA,7,9,Deciduous,DON,3,5/16/19,9/7/19,5/17/19
37818784,1,NOTHINGHERE,07_09_DON_000412.JPG,07_09_DON_000413.JPG,07_09_DON_000414.JPG,7,9,Deciduous,DON,3,5/16/19,9/7/19,5/17/19
37818785,1,NOTHINGHERE,07_09_DON_000415.JPG,07_09_DON_000416.JPG,07_09_DON_000417.JPG,7,9,Deciduous,DON,3,5/16/19,9/7/19,5/17/19
37818786,1,NOTHINGHERE,07_09_DON_000418.JPG,07_09_DON_000419.JPG,07_09_DON_000420.JPG,7,9,Deciduous,DON,3,5/16/19,9/7/19,5/17/19
37818787,1,NOTHINGHERE,07_09_DON_000421.JPG,07_09_DON_000422.JPG,NA,7,9,Deciduous,DON,3,5/16/19,9/7/19,5/17/19
37818789,1,NOTHINGHERE,07_09_DON_000430.JPG,07_09_DON_000431.JPG,NA,7,9,Deciduous,DON,3,5/16/19,9/7/19,5/17/19
37818791,1,NOTHINGHERE,07_09_DON_000433.JPG,07_09_DON_000434.JPG,07_09_DON_000435.JPG,7,9,Deciduous,DON,3,5/16/19,9/7/19,5/17/19
37818792,1,NOTHINGHERE,07_09_DON_000436.JPG,07_09_DON_000437.JPG,07_09_DON_000438.JPG,7,9,Deciduous,DON,3,5/16/19,9/7/19,5/17/19
37818795,1,NOTHINGHERE,07_09_DON_000445.JPG,07_09_DON_000446.JPG,NA,7,9,Deciduous,DON,3,5/16/19,9/7/19,5/17/19
37818797,1,NOTHINGHERE,07_09_DON_000448.JPG,07_09_DON_000449.JPG,07_09_DON_000450.JPG,7,9,Deciduous,DON,3,5/16/19,9/7/19,5/17/19
37818798,1,NOTHINGHERE,07_09_DON_000451.JPG,07_09_DON_000452.JPG,07_09_DON_000453.JPG,7,9,Deciduous,DON,3,5/16/19,9/7/19,5/17/19
37818799,1,NOTHINGHERE,07_09_DON_000454.JPG,07_09_DON_000455.JPG,NA,7,9,Deciduous,DON,3,5/16/19,9/7/19,5/17/19
37818800,1,NOTHINGHERE,07_09_DON_000457.JPG,07_09_DON_000458.JPG,07_09_DON_000459.JPG,7,9,Deciduous,DON,3,5/16/19,9/7/19,5/17/19
37818804,1,NOTHINGHERE,07_09_DON_000466.JPG,07_09_DON_000467.JPG,07_09_DON_000468.JPG,7,9,Deciduous,DON,3,5/16/19,9/7/19,5/17/19
37818805,1,NOTHINGHERE,07_09_DON_000469.JPG,07_09_DON_000470.JPG,07_09_DON_000471.JPG,7,9,Deciduous,DON,3,5/16/19,9/7/19,5/17/19
37818808,1,NOTHINGHERE,07_09_DON_000475.JPG,07_09_DON_000476.JPG,07_09_DON_000477.JPG,7,9,Deciduous,DON,3,5/16/19,9/7/19,5/17/19
37818809,1,NOTHINGHERE,07_09_DON_000478.JPG,07_09_DON_000479.JPG,07_09_DON_000480.JPG,7,9,Deciduous,DON,3,5/16/19,9/7/19,5/17/19
37818810,1,NOTHINGHERE,07_09_DON_000481.JPG,07_09_DON_000482.JPG,07_09_DON_000483.JPG,7,9,Deciduous,DON,3,5/16/19,9/7/19,5/17/19
37818811,1,NOTHINGHERE,07_09_DON_000484.JPG,07_09_DON_000485.JPG,07_09_DON_000486.JPG,7,9,Deciduous,DON,3,5/16/19,9/7/19,5/17/19
37818814,1,NOTHINGHERE,07_09_DON_000490.JPG,07_09_DON_000491.JPG,07_09_DON_000492.JPG,7,9,Deciduous,DON,3,5/16/19,9/7/19,5/17/19
37818815,1,NOTHINGHERE,07_09_DON_000493.JPG,07_09_DON_000494.JPG,07_09_DON_000495.JPG,7,9,Deciduous,DON,3,5/16/19,9/7/19,5/17/19
37818817,1,NOTHINGHERE,07_09_DON_000496.JPG,07_09_DON_000497.JPG,07_09_DON_000498.JPG,7,9,Deciduous,DON,3,5/16/19,9/7/19,5/17/19
37818818,1,NOTHINGHERE,07_09_DON_000499.JPG,07_09_DON_000500.JPG,07_09_DON_000501.JPG,7,9,Deciduous,DON,3,5/16/19,9/7/19,5/17/19
37818821,1,NOTHINGHERE,07_09_DON_000505.JPG,07_09_DON_000506.JPG,07_09_DON_000507.JPG,7,9,Deciduous,DON,3,5/16/19,9/7/19,5/17/19
37818822,2,NOTHINGHERE,07_09_DON_000508.JPG,07_09_DON_000509.JPG,07_09_DON_000510.JPG,7,9,Deciduous,DON,3,5/16/19,9/7/19,5/17/19
37818824,1,NOTHINGHERE,07_09_DON_000511.JPG,07_09_DON_000512.JPG,07_09_DON_000513.JPG,7,9,Deciduous,DON,3,5/16/19,9/7/19,5/17/19
37818825,1,NOTHINGHERE,07_09_DON_000514.JPG,07_09_DON_000515.JPG,07_09_DON_000516.JPG,7,9,Deciduous,DON,3,5/16/19,9/7/19,5/17/19
37818827,1,NOTHINGHERE,07_09_DON_000517.JPG,07_09_DON_000518.JPG,NA,7,9,Deciduous,DON,3,5/16/19,9/7/19,5/17/19
37818828,1,NOTHINGHERE,07_09_DON_000523.JPG,07_09_DON_000524.JPG,07_09_DON_000525.JPG,7,9,Deciduous,DON,3,5/16/19,9/7/19,5/17/19
37818829,1,NOTHINGHERE,07_09_DON_000526.JPG,07_09_DON_000527.JPG,07_09_DON_000528.JPG,7,9,Deciduous,DON,3,5/16/19,9/7/19,5/17/19
37818833,1,NOTHINGHERE,07_09_DON_000529.JPG,07_09_DON_000531.JPG,07_09_DON_000530.JPG,7,9,Deciduous,DON,3,5/16/19,9/7/19,5/17/19
37818835,1,NOTHINGHERE,07_09_DON_000532.JPG,07_09_DON_000533.JPG,07_09_DON_000534.JPG,7,9,Deciduous,DON,3,5/16/19,9/7/19,5/17/19
37818839,1,NOTHINGHERE,07_09_DON_000535.JPG,07_09_DON_000536.JPG,NA,7,9,Deciduous,DON,3,5/16/19,9/7/19,5/17/19
37818840,1,NOTHINGHERE,07_09_DON_000538.JPG,07_09_DON_000539.JPG,07_09_DON_000540.JPG,7,9,Deciduous,DON,3,5/16/19,9/7/19,5/17/19
37818841,1,NOTHINGHERE,07_09_DON_000541.JPG,07_09_DON_000542.JPG,07_09_DON_000543.JPG,7,9,Deciduous,DON,3,5/16/19,9/7/19,5/17/19
37818848,1,NOTHINGHERE,07_09_DON_000544.JPG,07_09_DON_000545.JPG,07_09_DON_000546.JPG,7,9,Deciduous,DON,3,5/16/19,9/7/19,5/17/19
37818854,1,NOTHINGHERE,07_09_DON_000547.JPG,07_09_DON_000548.JPG,07_09_DON_000549.JPG,7,9,Deciduous,DON,3,5/16/19,9/7/19,5/17/19
37818901,1,NOTHINGHERE,07_09_DON_000553.JPG,07_09_DON_000554.JPG,07_09_DON_000555.JPG,7,9,Deciduous,DON,3,5/16/19,9/7/19,5/17/19
37818906,1,NOTHINGHERE,07_09_DON_000562.JPG,07_09_DON_000563.JPG,07_09_DON_000564.JPG,7,9,Deciduous,DON,3,5/16/19,9/7/19,5/17/19
37818908,1,NOTHINGHERE,07_09_DON_000565.JPG,07_09_DON_000566.JPG,07_09_DON_000567.JPG,7,9,Deciduous,DON,3,5/16/19,9/7/19,5/17/19
39638644,2,DOMESTICDOG,07_42_WHIP_000001.JPG,07_42_WHIP_000003.JPG,07_42_WHIP_000002.JPG,7,42,Pine,WHIP,4,9/27/19,11/12/19,11/11/19
39638644,2,HUMAN,07_42_WHIP_000001.JPG,07_42_WHIP_000003.JPG,07_42_WHIP_000002.JPG,7,42,Pine,WHIP,4,9/27/19,11/12/19,11/11/19
39638645,1,DOMESTICDOG,07_42_WHIP_000004.JPG,07_42_WHIP_000005.JPG,07_42_WHIP_000006.JPG,7,42,Pine,WHIP,4,9/27/19,11/12/19,11/11/19
39638646,2,DOMESTICDOG,07_42_WHIP_000007.JPG,07_42_WHIP_000008.JPG,07_42_WHIP_000009.JPG,7,42,Pine,WHIP,4,9/27/19,11/12/19,11/11/19
39638646,2,HUMAN,07_42_WHIP_000007.JPG,07_42_WHIP_000008.JPG,07_42_WHIP_000009.JPG,7,42,Pine,WHIP,4,9/27/19,11/12/19,11/11/19
39638647,1,DOMESTICDOG,07_42_WHIP_000010.JPG,07_42_WHIP_000012.JPG,07_42_WHIP_000011.JPG,7,42,Pine,WHIP,4,9/27/19,11/12/19,11/11/19
39638648,1,DOMESTICDOG,07_42_WHIP_000013.JPG,07_42_WHIP_000014.JPG,07_42_WHIP_000015.JPG,7,42,Pine,WHIP,4,9/27/19,11/12/19,11/11/19
39638649,2,DOMESTICDOG,07_42_WHIP_000016.JPG,07_42_WHIP_000017.JPG,07_42_WHIP_000018.JPG,7,42,Pine,WHIP,4,9/27/19,11/12/19,11/11/19
39638650,1,HUMAN,07_42_WHIP_000019.JPG,07_42_WHIP_000020.JPG,07_42_WHIP_000021.JPG,7,42,Pine,WHIP,4,9/27/19,11/12/19,11/11/19
39638654,2,DOMESTICDOG,07_42_WHIP_000022.JPG,07_42_WHIP_000023.JPG,07_42_WHIP_000024.JPG,7,42,Pine,WHIP,4,9/27/19,11/12/19,11/11/19
39638654,2,HUMAN,07_42_WHIP_000022.JPG,07_42_WHIP_000023.JPG,07_42_WHIP_000024.JPG,7,42,Pine,WHIP,4,9/27/19,11/12/19,11/11/19
39638670,1,PORCUPINE,07_42_WHIP_000025.JPG,07_42_WHIP_000026.JPG,07_42_WHIP_000027.JPG,7,42,Pine,WHIP,4,9/27/19,11/12/19,11/11/19
39638702,1,NOTHINGHERE,07_42_WHIP_000031.JPG,07_42_WHIP_000033.JPG,07_42_WHIP_000032.JPG,7,42,Pine,WHIP,4,9/27/19,11/12/19,11/11/19
39638705,1,CHIPMUNK,07_42_WHIP_000034.JPG,07_42_WHIP_000035.JPG,07_42_WHIP_000036.JPG,7,42,Pine,WHIP,4,9/27/19,11/12/19,11/11/19
39638715,1,FISHER,07_42_WHIP_000037.JPG,07_42_WHIP_000038.JPG,07_42_WHIP_000039.JPG,7,42,Pine,WHIP,4,9/27/19,11/12/19,11/11/19
39638724,1,DEERWHITETAILED,07_42_WHIP_000040.JPG,07_42_WHIP_000041.JPG,07_42_WHIP_000042.JPG,7,42,Pine,WHIP,4,9/27/19,11/12/19,11/11/19
39638725,2,NOTHINGHERE,07_42_WHIP_000043.JPG,07_42_WHIP_000044.JPG,07_42_WHIP_000045.JPG,7,42,Pine,WHIP,4,9/27/19,11/12/19,11/11/19
39638729,1,NOTHINGHERE,07_42_WHIP_000046.JPG,07_42_WHIP_000047.JPG,07_42_WHIP_000048.JPG,7,42,Pine,WHIP,4,9/27/19,11/12/19,11/11/19
39638781,1,NOTHINGHERE,07_42_WHIP_000049.JPG,07_42_WHIP_000050.JPG,07_42_WHIP_000051.JPG,7,42,Pine,WHIP,4,9/27/19,11/12/19,11/11/19
39638787,1,COYOTE,07_42_WHIP_000052.JPG,07_42_WHIP_000053.JPG,07_42_WHIP_000054.JPG,7,42,Pine,WHIP,4,9/27/19,11/12/19,11/11/19
39638789,2,CHIPMUNK,07_42_WHIP_000056.JPG,07_42_WHIP_000055.JPG,07_42_WHIP_000057.JPG,7,42,Pine,WHIP,4,9/27/19,11/12/19,11/11/19
39638790,1,DEERWHITETAILED,07_42_WHIP_000058.JPG,07_42_WHIP_000059.JPG,07_42_WHIP_000060.JPG,7,42,Pine,WHIP,4,9/27/19,11/12/19,11/11/19
39638793,1,RACCOON,07_42_WHIP_000061.JPG,07_42_WHIP_000063.JPG,07_42_WHIP_000062.JPG,7,42,Pine,WHIP,4,9/27/19,11/12/19,11/11/19
39638822,2,SQUIRRELGRAY,07_42_WHIP_000064.JPG,07_42_WHIP_000065.JPG,07_42_WHIP_000066.JPG,7,42,Pine,WHIP,4,9/27/19,11/12/19,11/11/19
39638827,1,SQUIRRELGRAY,07_42_WHIP_000067.JPG,07_42_WHIP_000068.JPG,07_42_WHIP_000069.JPG,7,42,Pine,WHIP,4,9/27/19,11/12/19,11/11/19
39638832,1,DEERWHITETAILED,07_42_WHIP_000070.JPG,07_42_WHIP_000071.JPG,07_42_WHIP_000072.JPG,7,42,Pine,WHIP,4,9/27/19,11/12/19,11/11/19
39638886,1,NOTHINGHERE,07_42_WHIP_000073.JPG,07_42_WHIP_000074.JPG,07_42_WHIP_000075.JPG,7,42,Pine,WHIP,4,9/27/19,11/12/19,11/11/19
39638896,2,OTHERSMALLMAMMAL,07_42_WHIP_000076.JPG,07_42_WHIP_000077.JPG,07_42_WHIP_000078.JPG,7,42,Pine,WHIP,4,9/27/19,11/12/19,11/11/19
39638905,2,SQUIRRELGRAY,07_42_WHIP_000079.JPG,07_42_WHIP_000080.JPG,07_42_WHIP_000081.JPG,7,42,Pine,WHIP,4,9/27/19,11/12/19,11/11/19
39638907,1,SQUIRRELGRAY,07_42_WHIP_000082.JPG,07_42_WHIP_000083.JPG,07_42_WHIP_000084.JPG,7,42,Pine,WHIP,4,9/27/19,11/12/19,11/11/19
39638923,1,RACCOON,07_42_WHIP_000085.JPG,07_42_WHIP_000086.JPG,07_42_WHIP_000087.JPG,7,42,Pine,WHIP,4,9/27/19,11/12/19,11/11/19
39638941,2,CHIPMUNK,07_42_WHIP_000088.JPG,07_42_WHIP_000089.JPG,07_42_WHIP_000090.JPG,7,42,Pine,WHIP,4,9/27/19,11/12/19,11/11/19
39638942,2,NOTHINGHERE,07_42_WHIP_000091.JPG,07_42_WHIP_000092.JPG,07_42_WHIP_000093.JPG,7,42,Pine,WHIP,4,9/27/19,11/12/19,11/11/19
39638943,2,SQUIRRELGRAY,07_42_WHIP_000094.JPG,07_42_WHIP_000095.JPG,07_42_WHIP_000096.JPG,7,42,Pine,WHIP,4,9/27/19,11/12/19,11/11/19
39638945,1,SQUIRRELGRAY,07_42_WHIP_000097.JPG,07_42_WHIP_000098.JPG,07_42_WHIP_000099.JPG,7,42,Pine,WHIP,4,9/27/19,11/12/19,11/11/19
39638946,1,SQUIRRELGRAY,07_42_WHIP_000100.JPG,07_42_WHIP_000101.JPG,07_42_WHIP_000102.JPG,7,42,Pine,WHIP,4,9/27/19,11/12/19,11/11/19
39638956,1,TURKEY,07_42_WHIP_000103.JPG,07_42_WHIP_000104.JPG,07_42_WHIP_000105.JPG,7,42,Pine,WHIP,4,9/27/19,11/12/19,11/11/19
39638960,1,COYOTE,07_42_WHIP_000106.JPG,07_42_WHIP_000107.JPG,07_42_WHIP_000108.JPG,7,42,Pine,WHIP,4,9/27/19,11/12/19,11/11/19
39638990,1,CHIPMUNK,07_42_WHIP_000109.JPG,07_42_WHIP_000110.JPG,07_42_WHIP_000111.JPG,7,42,Pine,WHIP,4,9/27/19,11/12/19,11/11/19
39638991,1,SQUIRRELGRAY,07_42_WHIP_000112.JPG,07_42_WHIP_000113.JPG,07_42_WHIP_000114.JPG,7,42,Pine,WHIP,4,9/27/19,11/12/19,11/11/19
39638992,1,CHIPMUNK,07_42_WHIP_000115.JPG,07_42_WHIP_000116.JPG,07_42_WHIP_000117.JPG,7,42,Pine,WHIP,4,9/27/19,11/12/19,11/11/19
39638993,1,CHIPMUNK,07_42_WHIP_000118.JPG,07_42_WHIP_000119.JPG,07_42_WHIP_000120.JPG,7,42,Pine,WHIP,4,9/27/19,11/12/19,11/11/19
39639006,1,CHIPMUNK,07_42_WHIP_000121.JPG,07_42_WHIP_000122.JPG,07_42_WHIP_000123.JPG,7,42,Pine,WHIP,4,9/27/19,11/12/19,11/11/19
39639036,1,CHIPMUNK,07_42_WHIP_000124.JPG,07_42_WHIP_000125.JPG,07_42_WHIP_000126.JPG,7,42,Pine,WHIP,4,9/27/19,11/12/19,11/11/19
39639039,1,CHIPMUNK,07_42_WHIP_000127.JPG,07_42_WHIP_000128.JPG,07_42_WHIP_000129.JPG,7,42,Pine,WHIP,4,9/27/19,11/12/19,11/11/19
39639055,1,SQUIRRELGRAY,07_42_WHIP_000131.JPG,07_42_WHIP_000130.JPG,07_42_WHIP_000132.JPG,7,42,Pine,WHIP,4,9/27/19,11/12/19,11/11/19
39639057,1,FISHER,07_42_WHIP_000134.JPG,07_42_WHIP_000133.JPG,07_42_WHIP_000135.JPG,7,42,Pine,WHIP,4,9/27/19,11/12/19,11/11/19
39639066,2,CHIPMUNK,07_42_WHIP_000136.JPG,07_42_WHIP_000137.JPG,07_42_WHIP_000138.JPG,7,42,Pine,WHIP,4,9/27/19,11/12/19,11/11/19
39639197,1,RACCOON,07_42_WHIP_000139.JPG,07_42_WHIP_000140.JPG,07_42_WHIP_000141.JPG,7,42,Pine,WHIP,4,9/27/19,11/12/19,11/11/19
39639213,2,SQUIRRELGRAY,07_42_WHIP_000142.JPG,07_42_WHIP_000143.JPG,07_42_WHIP_000144.JPG,7,42,Pine,WHIP,4,9/27/19,11/12/19,11/11/19
39639228,1,BLUEJAY,07_42_WHIP_000145.JPG,07_42_WHIP_000146.JPG,07_42_WHIP_000147.JPG,7,42,Pine,WHIP,4,9/27/19,11/12/19,11/11/19
39639310,1,SQUIRRELGRAY,07_42_WHIP_000148.JPG,07_42_WHIP_000149.JPG,07_42_WHIP_000150.JPG,7,42,Pine,WHIP,4,9/27/19,11/12/19,11/11/19
39639322,1,NOTHINGHERE,07_42_WHIP_000151.JPG,07_42_WHIP_000152.JPG,07_42_WHIP_000153.JPG,7,42,Pine,WHIP,4,9/27/19,11/12/19,11/11/19
39639338,1,NOTHINGHERE,07_42_WHIP_000154.JPG,07_42_WHIP_000155.JPG,07_42_WHIP_000156.JPG,7,42,Pine,WHIP,4,9/27/19,11/12/19,11/11/19
39639339,1,SOMETHINGHERE,07_42_WHIP_000157.JPG,07_42_WHIP_000158.JPG,07_42_WHIP_000159.JPG,7,42,Pine,WHIP,4,9/27/19,11/12/19,11/11/19
39639363,1,RACCOON,07_42_WHIP_000160.JPG,07_42_WHIP_000161.JPG,07_42_WHIP_000162.JPG,7,42,Pine,WHIP,4,9/27/19,11/12/19,11/11/19
39639369,1,SQUIRRELGRAY,07_42_WHIP_000163.JPG,07_42_WHIP_000165.JPG,07_42_WHIP_000164.JPG,7,42,Pine,WHIP,4,9/27/19,11/12/19,11/11/19
39639370,1,SQUIRRELGRAY,07_42_WHIP_000166.JPG,07_42_WHIP_000167.JPG,07_42_WHIP_000168.JPG,7,42,Pine,WHIP,4,9/27/19,11/12/19,11/11/19
39639374,1,RACCOON,07_42_WHIP_000169.JPG,07_42_WHIP_000170.JPG,07_42_WHIP_000171.JPG,7,42,Pine,WHIP,4,9/27/19,11/12/19,11/11/19
39639409,1,NOTHINGHERE,07_42_WHIP_000172.JPG,07_42_WHIP_000173.JPG,07_42_WHIP_000174.JPG,7,42,Pine,WHIP,4,9/27/19,11/12/19,11/11/19
39639415,1,SQUIRRELGRAY,07_42_WHIP_000175.JPG,07_42_WHIP_000176.JPG,07_42_WHIP_000177.JPG,7,42,Pine,WHIP,4,9/27/19,11/12/19,11/11/19
39639441,1,SQUIRRELGRAY,07_42_WHIP_000178.JPG,07_42_WHIP_000179.JPG,07_42_WHIP_000180.JPG,7,42,Pine,WHIP,4,9/27/19,11/12/19,11/11/19
39639447,1,CHIPMUNK,07_42_WHIP_000181.JPG,07_42_WHIP_000182.JPG,07_42_WHIP_000183.JPG,7,42,Pine,WHIP,4,9/27/19,11/12/19,11/11/19
39639449,1,CHIPMUNK,07_42_WHIP_000184.JPG,07_42_WHIP_000185.JPG,07_42_WHIP_000186.JPG,7,42,Pine,WHIP,4,9/27/19,11/12/19,11/11/19
39639456,2,SQUIRRELGRAY,07_42_WHIP_000187.JPG,07_42_WHIP_000188.JPG,07_42_WHIP_000189.JPG,7,42,Pine,WHIP,4,9/27/19,11/12/19,11/11/19
39639484,1,SQUIRRELGRAY,07_42_WHIP_000190.JPG,07_42_WHIP_000191.JPG,NA,7,42,Pine,WHIP,4,9/27/19,11/12/19,11/11/19
39639491,2,PORCUPINE,07_42_WHIP_000193.JPG,07_42_WHIP_000194.JPG,07_42_WHIP_000195.JPG,7,42,Pine,WHIP,4,9/27/19,11/12/19,11/11/19
39639499,1,NOTHINGHERE,07_42_WHIP_000196.JPG,07_42_WHIP_000197.JPG,07_42_WHIP_000198.JPG,7,42,Pine,WHIP,4,9/27/19,11/12/19,11/11/19
39639515,1,RACCOON,07_42_WHIP_000199.JPG,07_42_WHIP_000200.JPG,07_42_WHIP_000201.JPG,7,42,Pine,WHIP,4,9/27/19,11/12/19,11/11/19
39639519,1,RACCOON,07_42_WHIP_000202.JPG,07_42_WHIP_000203.JPG,07_42_WHIP_000204.JPG,7,42,Pine,WHIP,4,9/27/19,11/12/19,11/11/19
39639573,1,OTHERSMALLMAMMAL,07_42_WHIP_000205.JPG,07_42_WHIP_000206.JPG,07_42_WHIP_000207.JPG,7,42,Pine,WHIP,4,9/27/19,11/12/19,11/11/19
39639578,1,CHIPMUNK,07_42_WHIP_000208.JPG,07_42_WHIP_000209.JPG,07_42_WHIP_000210.JPG,7,42,Pine,WHIP,4,9/27/19,11/12/19,11/11/19
39639583,1,CHIPMUNK,07_42_WHIP_000211.JPG,07_42_WHIP_000212.JPG,07_42_WHIP_000213.JPG,7,42,Pine,WHIP,4,9/27/19,11/12/19,11/11/19
39639589,1,SQUIRRELGRAY,07_42_WHIP_000214.JPG,07_42_WHIP_000215.JPG,07_42_WHIP_000216.JPG,7,42,Pine,WHIP,4,9/27/19,11/12/19,11/11/19
39639593,1,DEERWHITETAILED,07_42_WHIP_000217.JPG,07_42_WHIP_000218.JPG,07_42_WHIP_000219.JPG,7,42,Pine,WHIP,4,9/27/19,11/12/19,11/11/19
39639613,1,SQUIRRELGRAY,07_42_WHIP_000220.JPG,07_42_WHIP_000221.JPG,07_42_WHIP_000222.JPG,7,42,Pine,WHIP,4,9/27/19,11/12/19,11/11/19
39639661,1,DEERWHITETAILED,07_42_WHIP_000223.JPG,07_42_WHIP_000224.JPG,07_42_WHIP_000225.JPG,7,42,Pine,WHIP,4,9/27/19,11/12/19,11/11/19
39639713,1,SQUIRRELGRAY,07_42_WHIP_000226.JPG,07_42_WHIP_000227.JPG,07_42_WHIP_000228.JPG,7,42,Pine,WHIP,4,9/27/19,11/12/19,11/11/19
39639802,1,OTHERSMALLMAMMAL,07_42_WHIP_000229.JPG,07_42_WHIP_000230.JPG,07_42_WHIP_000231.JPG,7,42,Pine,WHIP,4,9/27/19,11/12/19,11/11/19
39639817,1,NOTHINGHERE,07_42_WHIP_000232.JPG,07_42_WHIP_000233.JPG,07_42_WHIP_000234.JPG,7,42,Pine,WHIP,4,9/27/19,11/12/19,11/11/19
39639868,1,DEERWHITETAILED,07_42_WHIP_000235.JPG,07_42_WHIP_000236.JPG,07_42_WHIP_000237.JPG,7,42,Pine,WHIP,4,9/27/19,11/12/19,11/11/19
39639929,1,DEERWHITETAILED,07_42_WHIP_000238.JPG,07_42_WHIP_000239.JPG,07_42_WHIP_000240.JPG,7,42,Pine,WHIP,4,9/27/19,11/12/19,11/11/19
37160179,1,DEERWHITETAILED,08_11_DEG_000001.JPG,08_11_DEG_000002.JPG,08_11_DEG_000003.JPG,8,11,Pine,DEG,2,2/7/19,5/13/19,4/18/19
37160180,2,DEERWHITETAILED,08_11_DEG_000004.JPG,08_11_DEG_000005.JPG,08_11_DEG_000006.JPG,8,11,Pine,DEG,2,2/7/19,5/13/19,4/18/19
37160181,1,DEERWHITETAILED,08_11_DEG_000007.JPG,08_11_DEG_000008.JPG,08_11_DEG_000009.JPG,8,11,Pine,DEG,2,2/7/19,5/13/19,4/18/19
37160182,1,DEERWHITETAILED,08_11_DEG_000010.JPG,08_11_DEG_000011.JPG,08_11_DEG_000012.JPG,8,11,Pine,DEG,2,2/7/19,5/13/19,4/18/19
37160183,1,DEERWHITETAILED,08_11_DEG_000013.JPG,08_11_DEG_000014.JPG,08_11_DEG_000015.JPG,8,11,Pine,DEG,2,2/7/19,5/13/19,4/18/19
31428313,1,DEERWHITETAILED,09_25_WF_000001.JPG,09_25_WF_000002.JPG,09_25_WF_000003.JPG,9,25,Pine,WF,1,11/17/18,1/31/19,12/2/18
31428314,1,SQUIRRELGRAY,09_25_WF_000004.JPG,09_25_WF_000005.JPG,09_25_WF_000006.JPG,9,25,Pine,WF,1,11/17/18,1/31/19,12/2/18
37160231,1,NOTHINGHERE,10_25_SH_000001.JPG,10_25_SH_000002.JPG,10_25_SH_000003.JPG,10,25,Deciduous,SH,2,2/11/19,5/10/19,5/10/19
37160232,1,DEERWHITETAILED,10_25_SH_000004.JPG,10_25_SH_000005.JPG,10_25_SH_000006.JPG,10,25,Deciduous,SH,2,2/11/19,5/10/19,5/10/19
37160233,1,DEERWHITETAILED,10_25_SH_000007.JPG,10_25_SH_000008.JPG,10_25_SH_000009.JPG,10,25,Deciduous,SH,2,2/11/19,5/10/19,5/10/19
37160234,1,DEERWHITETAILED,10_25_SH_000010.JPG,10_25_SH_000011.JPG,10_25_SH_000012.JPG,10,25,Deciduous,SH,2,2/11/19,5/10/19,5/10/19
37160235,1,NOTHINGHERE,10_25_SH_000013.JPG,10_25_SH_000014.JPG,10_25_SH_000015.JPG,10,25,Deciduous,SH,2,2/11/19,5/10/19,5/10/19
37160236,1,NOTHINGHERE,10_25_SH_000016.JPG,10_25_SH_000017.JPG,10_25_SH_000018.JPG,10,25,Deciduous,SH,2,2/11/19,5/10/19,5/10/19
37160237,1,NOTHINGHERE,10_25_SH_000019.JPG,10_25_SH_000020.JPG,10_25_SH_000021.JPG,10,25,Deciduous,SH,2,2/11/19,5/10/19,5/10/19
37160238,1,NOTHINGHERE,10_25_SH_000022.JPG,10_25_SH_000023.JPG,10_25_SH_000024.JPG,10,25,Deciduous,SH,2,2/11/19,5/10/19,5/10/19
37160239,1,NOTHINGHERE,10_25_SH_000025.JPG,10_25_SH_000026.JPG,10_25_SH_000027.JPG,10,25,Deciduous,SH,2,2/11/19,5/10/19,5/10/19
37160240,1,NOTHINGHERE,10_25_SH_000028.JPG,10_25_SH_000029.JPG,10_25_SH_000030.JPG,10,25,Deciduous,SH,2,2/11/19,5/10/19,5/10/19
37160241,1,NOTHINGHERE,10_25_SH_000031.JPG,10_25_SH_000032.JPG,10_25_SH_000033.JPG,10,25,Deciduous,SH,2,2/11/19,5/10/19,5/10/19
37160242,1,NOTHINGHERE,10_25_SH_000034.JPG,10_25_SH_000035.JPG,10_25_SH_000036.JPG,10,25,Deciduous,SH,2,2/11/19,5/10/19,5/10/19
37160243,1,NOTHINGHERE,10_25_SH_000043.JPG,10_25_SH_000044.JPG,NA,10,25,Deciduous,SH,2,2/11/19,5/10/19,5/10/19
37160244,1,NOTHINGHERE,10_25_SH_000046.JPG,10_25_SH_000047.JPG,10_25_SH_000048.JPG,10,25,Deciduous,SH,2,2/11/19,5/10/19,5/10/19
37160245,2,NOTHINGHERE,10_25_SH_000052.JPG,10_25_SH_000053.JPG,NA,10,25,Deciduous,SH,2,2/11/19,5/10/19,5/10/19
37160246,1,NOTHINGHERE,10_25_SH_000058.JPG,10_25_SH_000059.JPG,NA,10,25,Deciduous,SH,2,2/11/19,5/10/19,5/10/19
37160247,1,NOTHINGHERE,10_25_SH_000064.JPG,10_25_SH_000065.JPG,NA,10,25,Deciduous,SH,2,2/11/19,5/10/19,5/10/19
37160248,1,NOTHINGHERE,10_25_SH_000067.JPG,10_25_SH_000068.JPG,NA,10,25,Deciduous,SH,2,2/11/19,5/10/19,5/10/19
37160249,1,NOTHINGHERE,10_25_SH_000070.JPG,10_25_SH_000071.JPG,NA,10,25,Deciduous,SH,2,2/11/19,5/10/19,5/10/19
37160250,1,NOTHINGHERE,10_25_SH_000074.JPG,10_25_SH_000075.JPG,NA,10,25,Deciduous,SH,2,2/11/19,5/10/19,5/10/19
37160251,1,NOTHINGHERE,10_25_SH_000076.JPG,10_25_SH_000077.JPG,NA,10,25,Deciduous,SH,2,2/11/19,5/10/19,5/10/19
37160252,1,NOTHINGHERE,10_25_SH_000079.JPG,10_25_SH_000080.JPG,NA,10,25,Deciduous,SH,2,2/11/19,5/10/19,5/10/19
37160253,1,NOTHINGHERE,10_25_SH_000082.JPG,10_25_SH_000083.JPG,10_25_SH_000084.JPG,10,25,Deciduous,SH,2,2/11/19,5/10/19,5/10/19
37160254,1,NOTHINGHERE,10_25_SH_000085.JPG,10_25_SH_000086.JPG,10_25_SH_000087.JPG,10,25,Deciduous,SH,2,2/11/19,5/10/19,5/10/19
37160255,1,NOTHINGHERE,10_25_SH_000097.JPG,10_25_SH_000098.JPG,10_25_SH_000099.JPG,10,25,Deciduous,SH,2,2/11/19,5/10/19,5/10/19
37160256,1,NOTHINGHERE,10_25_SH_000100.JPG,10_25_SH_000101.JPG,NA,10,25,Deciduous,SH,2,2/11/19,5/10/19,5/10/19
37160257,1,NOTHINGHERE,10_25_SH_000103.JPG,10_25_SH_000104.JPG,10_25_SH_000105.JPG,10,25,Deciduous,SH,2,2/11/19,5/10/19,5/10/19
37160258,1,NOTHINGHERE,10_25_SH_000106.JPG,10_25_SH_000107.JPG,10_25_SH_000108.JPG,10,25,Deciduous,SH,2,2/11/19,5/10/19,5/10/19
37160259,1,NOTHINGHERE,10_25_SH_000109.JPG,10_25_SH_000110.JPG,NA,10,25,Deciduous,SH,2,2/11/19,5/10/19,5/10/19
37160260,1,NOTHINGHERE,10_25_SH_000112.JPG,10_25_SH_000113.JPG,10_25_SH_000114.JPG,10,25,Deciduous,SH,2,2/11/19,5/10/19,5/10/19
37160261,1,NOTHINGHERE,10_25_SH_000115.JPG,10_25_SH_000116.JPG,10_25_SH_000117.JPG,10,25,Deciduous,SH,2,2/11/19,5/10/19,5/10/19
37160262,1,NOTHINGHERE,10_25_SH_000118.JPG,10_25_SH_000119.JPG,10_25_SH_000120.JPG,10,25,Deciduous,SH,2,2/11/19,5/10/19,5/10/19
37160263,1,NOTHINGHERE,10_25_SH_000121.JPG,10_25_SH_000122.JPG,10_25_SH_000123.JPG,10,25,Deciduous,SH,2,2/11/19,5/10/19,5/10/19
37160264,1,NOTHINGHERE,10_25_SH_000124.JPG,10_25_SH_000125.JPG,10_25_SH_000126.JPG,10,25,Deciduous,SH,2,2/11/19,5/10/19,5/10/19
37160265,1,NOTHINGHERE,10_25_SH_000127.JPG,10_25_SH_000128.JPG,10_25_SH_000129.JPG,10,25,Deciduous,SH,2,2/11/19,5/10/19,5/10/19
37160266,1,NOTHINGHERE,10_25_SH_000130.JPG,10_25_SH_000131.JPG,10_25_SH_000132.JPG,10,25,Deciduous,SH,2,2/11/19,5/10/19,5/10/19
37160267,2,NOTHINGHERE,10_25_SH_000133.JPG,10_25_SH_000134.JPG,10_25_SH_000135.JPG,10,25,Deciduous,SH,2,2/11/19,5/10/19,5/10/19
37160268,1,NOTHINGHERE,10_25_SH_000139.JPG,10_25_SH_000140.JPG,10_25_SH_000141.JPG,10,25,Deciduous,SH,2,2/11/19,5/10/19,5/10/19
37160269,1,NOTHINGHERE,10_25_SH_000142.JPG,10_25_SH_000143.JPG,NA,10,25,Deciduous,SH,2,2/11/19,5/10/19,5/10/19
37160270,1,NOTHINGHERE,10_25_SH_000145.JPG,10_25_SH_000146.JPG,10_25_SH_000147.JPG,10,25,Deciduous,SH,2,2/11/19,5/10/19,5/10/19
37160271,1,NOTHINGHERE,10_25_SH_000148.JPG,10_25_SH_000149.JPG,10_25_SH_000150.JPG,10,25,Deciduous,SH,2,2/11/19,5/10/19,5/10/19
37160272,1,NOTHINGHERE,10_25_SH_000160.JPG,10_25_SH_000161.JPG,10_25_SH_000162.JPG,10,25,Deciduous,SH,2,2/11/19,5/10/19,5/10/19
37160273,1,NOTHINGHERE,10_25_SH_000163.JPG,10_25_SH_000164.JPG,10_25_SH_000165.JPG,10,25,Deciduous,SH,2,2/11/19,5/10/19,5/10/19
37160274,2,NOTHINGHERE,10_25_SH_000166.JPG,10_25_SH_000167.JPG,10_25_SH_000168.JPG,10,25,Deciduous,SH,2,2/11/19,5/10/19,5/10/19
37160275,1,NOTHINGHERE,10_25_SH_000169.JPG,10_25_SH_000170.JPG,10_25_SH_000171.JPG,10,25,Deciduous,SH,2,2/11/19,5/10/19,5/10/19
37160276,1,NOTHINGHERE,10_25_SH_000172.JPG,10_25_SH_000173.JPG,10_25_SH_000174.JPG,10,25,Deciduous,SH,2,2/11/19,5/10/19,5/10/19
37160277,1,NOTHINGHERE,10_25_SH_000175.JPG,10_25_SH_000176.JPG,10_25_SH_000177.JPG,10,25,Deciduous,SH,2,2/11/19,5/10/19,5/10/19
37160278,1,NOTHINGHERE,10_25_SH_000178.JPG,10_25_SH_000179.JPG,10_25_SH_000180.JPG,10,25,Deciduous,SH,2,2/11/19,5/10/19,5/10/19
37160279,1,NOTHINGHERE,10_25_SH_000181.JPG,10_25_SH_000182.JPG,NA,10,25,Deciduous,SH,2,2/11/19,5/10/19,5/10/19
37160280,1,NOTHINGHERE,10_25_SH_000184.JPG,10_25_SH_000185.JPG,10_25_SH_000186.JPG,10,25,Deciduous,SH,2,2/11/19,5/10/19,5/10/19
37160281,1,NOTHINGHERE,10_25_SH_000199.JPG,10_25_SH_000200.JPG,NA,10,25,Deciduous,SH,2,2/11/19,5/10/19,5/10/19
37160282,1,NOTHINGHERE,10_25_SH_000202.JPG,10_25_SH_000203.JPG,NA,10,25,Deciduous,SH,2,2/11/19,5/10/19,5/10/19
37160283,1,NOTHINGHERE,10_25_SH_000211.JPG,10_25_SH_000212.JPG,NA,10,25,Deciduous,SH,2,2/11/19,5/10/19,5/10/19
37160284,1,NOTHINGHERE,10_25_SH_000214.JPG,10_25_SH_000215.JPG,NA,10,25,Deciduous,SH,2,2/11/19,5/10/19,5/10/19
37160285,1,NOTHINGHERE,10_25_SH_000217.JPG,10_25_SH_000218.JPG,NA,10,25,Deciduous,SH,2,2/11/19,5/10/19,5/10/19
37160286,1,NOTHINGHERE,10_25_SH_000223.JPG,10_25_SH_000224.JPG,10_25_SH_000225.JPG,10,25,Deciduous,SH,2,2/11/19,5/10/19,5/10/19
37160287,1,NOTHINGHERE,10_25_SH_000226.JPG,10_25_SH_000227.JPG,NA,10,25,Deciduous,SH,2,2/11/19,5/10/19,5/10/19
37160288,1,NOTHINGHERE,10_25_SH_000229.JPG,10_25_SH_000230.JPG,NA,10,25,Deciduous,SH,2,2/11/19,5/10/19,5/10/19
37160289,1,NOTHINGHERE,10_25_SH_000232.JPG,10_25_SH_000233.JPG,10_25_SH_000234.JPG,10,25,Deciduous,SH,2,2/11/19,5/10/19,5/10/19
37160290,1,NOTHINGHERE,10_25_SH_000238.JPG,10_25_SH_000239.JPG,NA,10,25,Deciduous,SH,2,2/11/19,5/10/19,5/10/19
37160291,1,NOTHINGHERE,10_25_SH_000241.JPG,10_25_SH_000242.JPG,NA,10,25,Deciduous,SH,2,2/11/19,5/10/19,5/10/19
37160292,1,NOTHINGHERE,10_25_SH_000259.JPG,10_25_SH_000260.JPG,NA,10,25,Deciduous,SH,2,2/11/19,5/10/19,5/10/19
37160293,1,NOTHINGHERE,10_25_SH_000262.JPG,10_25_SH_000263.JPG,NA,10,25,Deciduous,SH,2,2/11/19,5/10/19,5/10/19
37160294,1,NOTHINGHERE,10_25_SH_000265.JPG,10_25_SH_000266.JPG,NA,10,25,Deciduous,SH,2,2/11/19,5/10/19,5/10/19
37160295,1,NOTHINGHERE,10_25_SH_000274.JPG,10_25_SH_000275.JPG,NA,10,25,Deciduous,SH,2,2/11/19,5/10/19,5/10/19
37160296,1,NOTHINGHERE,10_25_SH_000283.JPG,10_25_SH_000284.JPG,NA,10,25,Deciduous,SH,2,2/11/19,5/10/19,5/10/19
37160297,1,NOTHINGHERE,10_25_SH_000286.JPG,10_25_SH_000287.JPG,10_25_SH_000288.JPG,10,25,Deciduous,SH,2,2/11/19,5/10/19,5/10/19
37160298,1,NOTHINGHERE,10_25_SH_000289.JPG,10_25_SH_000290.JPG,10_25_SH_000291.JPG,10,25,Deciduous,SH,2,2/11/19,5/10/19,5/10/19
37160299,1,NOTHINGHERE,10_25_SH_000295.JPG,10_25_SH_000296.JPG,10_25_SH_000297.JPG,10,25,Deciduous,SH,2,2/11/19,5/10/19,5/10/19
37160300,1,NOTHINGHERE,10_25_SH_000298.JPG,10_25_SH_000299.JPG,10_25_SH_000300.JPG,10,25,Deciduous,SH,2,2/11/19,5/10/19,5/10/19
37160301,1,NOTHINGHERE,10_25_SH_000301.JPG,10_25_SH_000302.JPG,NA,10,25,Deciduous,SH,2,2/11/19,5/10/19,5/10/19
37160302,1,NOTHINGHERE,10_25_SH_000304.JPG,10_25_SH_000305.JPG,NA,10,25,Deciduous,SH,2,2/11/19,5/10/19,5/10/19
37160303,1,NOTHINGHERE,10_25_SH_000307.JPG,10_25_SH_000308.JPG,NA,10,25,Deciduous,SH,2,2/11/19,5/10/19,5/10/19
37160304,1,NOTHINGHERE,10_25_SH_000313.JPG,10_25_SH_000314.JPG,10_25_SH_000315.JPG,10,25,Deciduous,SH,2,2/11/19,5/10/19,5/10/19
37160305,1,NOTHINGHERE,10_25_SH_000316.JPG,10_25_SH_000317.JPG,NA,10,25,Deciduous,SH,2,2/11/19,5/10/19,5/10/19
37160306,1,NOTHINGHERE,10_25_SH_000319.JPG,10_25_SH_000320.JPG,NA,10,25,Deciduous,SH,2,2/11/19,5/10/19,5/10/19
37160307,1,NOTHINGHERE,10_25_SH_000322.JPG,10_25_SH_000323.JPG,NA,10,25,Deciduous,SH,2,2/11/19,5/10/19,5/10/19
37160308,1,NOTHINGHERE,10_25_SH_000325.JPG,10_25_SH_000326.JPG,NA,10,25,Deciduous,SH,2,2/11/19,5/10/19,5/10/19
37160309,1,NOTHINGHERE,10_25_SH_000328.JPG,10_25_SH_000329.JPG,NA,10,25,Deciduous,SH,2,2/11/19,5/10/19,5/10/19
37160310,1,NOTHINGHERE,10_25_SH_000331.JPG,10_25_SH_000332.JPG,10_25_SH_000333.JPG,10,25,Deciduous,SH,2,2/11/19,5/10/19,5/10/19
37160311,1,NOTHINGHERE,10_25_SH_000334.JPG,10_25_SH_000335.JPG,NA,10,25,Deciduous,SH,2,2/11/19,5/10/19,5/10/19
37160312,1,NOTHINGHERE,10_25_SH_000337.JPG,10_25_SH_000338.JPG,NA,10,25,Deciduous,SH,2,2/11/19,5/10/19,5/10/19
37160313,1,NOTHINGHERE,10_25_SH_000346.JPG,10_25_SH_000347.JPG,NA,10,25,Deciduous,SH,2,2/11/19,5/10/19,5/10/19
37160314,1,NOTHINGHERE,10_25_SH_000349.JPG,10_25_SH_000350.JPG,NA,10,25,Deciduous,SH,2,2/11/19,5/10/19,5/10/19
37160315,1,NOTHINGHERE,10_25_SH_000352.JPG,10_25_SH_000353.JPG,NA,10,25,Deciduous,SH,2,2/11/19,5/10/19,5/10/19
37160316,1,NOTHINGHERE,10_25_SH_000364.JPG,10_25_SH_000365.JPG,NA,10,25,Deciduous,SH,2,2/11/19,5/10/19,5/10/19
37160317,1,NOTHINGHERE,10_25_SH_000367.JPG,10_25_SH_000368.JPG,NA,10,25,Deciduous,SH,2,2/11/19,5/10/19,5/10/19
37160318,1,NOTHINGHERE,10_25_SH_000373.JPG,10_25_SH_000374.JPG,10_25_SH_000375.JPG,10,25,Deciduous,SH,2,2/11/19,5/10/19,5/10/19
37160319,1,NOTHINGHERE,10_25_SH_000379.JPG,10_25_SH_000380.JPG,NA,10,25,Deciduous,SH,2,2/11/19,5/10/19,5/10/19
37160320,1,NOTHINGHERE,10_25_SH_000382.JPG,10_25_SH_000383.JPG,10_25_SH_000384.JPG,10,25,Deciduous,SH,2,2/11/19,5/10/19,5/10/19
37160321,1,NOTHINGHERE,10_25_SH_000385.JPG,10_25_SH_000386.JPG,10_25_SH_000387.JPG,10,25,Deciduous,SH,2,2/11/19,5/10/19,5/10/19
37160322,2,NOTHINGHERE,10_25_SH_000388.JPG,10_25_SH_000389.JPG,10_25_SH_000390.JPG,10,25,Deciduous,SH,2,2/11/19,5/10/19,5/10/19
37160323,1,NOTHINGHERE,10_25_SH_000394.JPG,10_25_SH_000395.JPG,10_25_SH_000396.JPG,10,25,Deciduous,SH,2,2/11/19,5/10/19,5/10/19
37160324,1,NOTHINGHERE,10_25_SH_000403.JPG,10_25_SH_000404.JPG,NA,10,25,Deciduous,SH,2,2/11/19,5/10/19,5/10/19
37160325,1,NOTHINGHERE,10_25_SH_000409.JPG,10_25_SH_000410.JPG,10_25_SH_000411.JPG,10,25,Deciduous,SH,2,2/11/19,5/10/19,5/10/19
37160326,1,NOTHINGHERE,10_25_SH_000412.JPG,10_25_SH_000413.JPG,10_25_SH_000414.JPG,10,25,Deciduous,SH,2,2/11/19,5/10/19,5/10/19
37160327,1,NOTHINGHERE,10_25_SH_000415.JPG,10_25_SH_000416.JPG,10_25_SH_000417.JPG,10,25,Deciduous,SH,2,2/11/19,5/10/19,5/10/19
37160328,1,NOTHINGHERE,10_25_SH_000418.JPG,10_25_SH_000419.JPG,10_25_SH_000420.JPG,10,25,Deciduous,SH,2,2/11/19,5/10/19,5/10/19
37160329,1,NOTHINGHERE,10_25_SH_000421.JPG,10_25_SH_000422.JPG,NA,10,25,Deciduous,SH,2,2/11/19,5/10/19,5/10/19
37160330,2,NOTHINGHERE,10_25_SH_000424.JPG,10_25_SH_000425.JPG,10_25_SH_000426.JPG,10,25,Deciduous,SH,2,2/11/19,5/10/19,5/10/19
37160331,1,NOTHINGHERE,10_25_SH_000427.JPG,10_25_SH_000428.JPG,10_25_SH_000429.JPG,10,25,Deciduous,SH,2,2/11/19,5/10/19,5/10/19
37160332,1,NOTHINGHERE,10_25_SH_000436.JPG,10_25_SH_000437.JPG,10_25_SH_000438.JPG,10,25,Deciduous,SH,2,2/11/19,5/10/19,5/10/19
37160333,1,NOTHINGHERE,10_25_SH_000439.JPG,10_25_SH_000440.JPG,NA,10,25,Deciduous,SH,2,2/11/19,5/10/19,5/10/19
37160334,1,NOTHINGHERE,10_25_SH_000442.JPG,10_25_SH_000443.JPG,NA,10,25,Deciduous,SH,2,2/11/19,5/10/19,5/10/19
37160335,1,NOTHINGHERE,10_25_SH_000445.JPG,10_25_SH_000446.JPG,10_25_SH_000447.JPG,10,25,Deciduous,SH,2,2/11/19,5/10/19,5/10/19
37160336,2,NOTHINGHERE,10_25_SH_000451.JPG,10_25_SH_000452.JPG,NA,10,25,Deciduous,SH,2,2/11/19,5/10/19,5/10/19
37160337,1,NOTHINGHERE,10_25_SH_000457.JPG,10_25_SH_000458.JPG,10_25_SH_000459.JPG,10,25,Deciduous,SH,2,2/11/19,5/10/19,5/10/19
37160338,1,NOTHINGHERE,10_25_SH_000460.JPG,10_25_SH_000461.JPG,10_25_SH_000462.JPG,10,25,Deciduous,SH,2,2/11/19,5/10/19,5/10/19
37160339,1,NOTHINGHERE,10_25_SH_000466.JPG,10_25_SH_000467.JPG,10_25_SH_000468.JPG,10,25,Deciduous,SH,2,2/11/19,5/10/19,5/10/19
37160340,1,NOTHINGHERE,10_25_SH_000469.JPG,10_25_SH_000470.JPG,10_25_SH_000471.JPG,10,25,Deciduous,SH,2,2/11/19,5/10/19,5/10/19
37160341,1,NOTHINGHERE,10_25_SH_000475.JPG,10_25_SH_000476.JPG,10_25_SH_000477.JPG,10,25,Deciduous,SH,2,2/11/19,5/10/19,5/10/19
37160342,1,NOTHINGHERE,10_25_SH_000478.JPG,10_25_SH_000479.JPG,NA,10,25,Deciduous,SH,2,2/11/19,5/10/19,5/10/19
37160343,1,NOTHINGHERE,10_25_SH_000481.JPG,10_25_SH_000482.JPG,10_25_SH_000483.JPG,10,25,Deciduous,SH,2,2/11/19,5/10/19,5/10/19
37160344,1,NOTHINGHERE,10_25_SH_000487.JPG,10_25_SH_000488.JPG,NA,10,25,Deciduous,SH,2,2/11/19,5/10/19,5/10/19
37160345,1,NOTHINGHERE,10_25_SH_000490.JPG,10_25_SH_000491.JPG,10_25_SH_000492.JPG,10,25,Deciduous,SH,2,2/11/19,5/10/19,5/10/19
37160346,1,NOTHINGHERE,10_25_SH_000493.JPG,10_25_SH_000494.JPG,NA,10,25,Deciduous,SH,2,2/11/19,5/10/19,5/10/19
37160347,1,NOTHINGHERE,10_25_SH_000502.JPG,10_25_SH_000503.JPG,10_25_SH_000504.JPG,10,25,Deciduous,SH,2,2/11/19,5/10/19,5/10/19
37160348,1,NOTHINGHERE,10_25_SH_000505.JPG,10_25_SH_000506.JPG,NA,10,25,Deciduous,SH,2,2/11/19,5/10/19,5/10/19
37160349,1,NOTHINGHERE,10_25_SH_000508.JPG,10_25_SH_000509.JPG,10_25_SH_000510.JPG,10,25,Deciduous,SH,2,2/11/19,5/10/19,5/10/19
37160350,1,NOTHINGHERE,10_25_SH_000511.JPG,10_25_SH_000512.JPG,10_25_SH_000513.JPG,10,25,Deciduous,SH,2,2/11/19,5/10/19,5/10/19
37160351,2,NOTHINGHERE,10_25_SH_000514.JPG,10_25_SH_000515.JPG,10_25_SH_000516.JPG,10,25,Deciduous,SH,2,2/11/19,5/10/19,5/10/19
37160352,1,NOTHINGHERE,10_25_SH_000520.JPG,10_25_SH_000521.JPG,10_25_SH_000522.JPG,10,25,Deciduous,SH,2,2/11/19,5/10/19,5/10/19
37160353,2,NOTHINGHERE,10_25_SH_000523.JPG,10_25_SH_000524.JPG,10_25_SH_000525.JPG,10,25,Deciduous,SH,2,2/11/19,5/10/19,5/10/19
37160354,1,NOTHINGHERE,10_25_SH_000526.JPG,10_25_SH_000527.JPG,10_25_SH_000528.JPG,10,25,Deciduous,SH,2,2/11/19,5/10/19,5/10/19
37160355,1,NOTHINGHERE,10_25_SH_000529.JPG,10_25_SH_000530.JPG,10_25_SH_000531.JPG,10,25,Deciduous,SH,2,2/11/19,5/10/19,5/10/19
37160356,1,NOTHINGHERE,10_25_SH_000532.JPG,10_25_SH_000533.JPG,10_25_SH_000534.JPG,10,25,Deciduous,SH,2,2/11/19,5/10/19,5/10/19
37160357,1,NOTHINGHERE,10_25_SH_000535.JPG,10_25_SH_000536.JPG,10_25_SH_000537.JPG,10,25,Deciduous,SH,2,2/11/19,5/10/19,5/10/19
37160358,1,NOTHINGHERE,10_25_SH_000538.JPG,10_25_SH_000539.JPG,10_25_SH_000540.JPG,10,25,Deciduous,SH,2,2/11/19,5/10/19,5/10/19
37160359,1,NOTHINGHERE,10_25_SH_000541.JPG,10_25_SH_000542.JPG,10_25_SH_000543.JPG,10,25,Deciduous,SH,2,2/11/19,5/10/19,5/10/19
37160360,1,NOTHINGHERE,10_25_SH_000544.JPG,10_25_SH_000545.JPG,NA,10,25,Deciduous,SH,2,2/11/19,5/10/19,5/10/19
37160361,1,NOTHINGHERE,10_25_SH_000547.JPG,10_25_SH_000548.JPG,10_25_SH_000549.JPG,10,25,Deciduous,SH,2,2/11/19,5/10/19,5/10/19
37160362,1,NOTHINGHERE,10_25_SH_000553.JPG,10_25_SH_000554.JPG,NA,10,25,Deciduous,SH,2,2/11/19,5/10/19,5/10/19
37160363,1,NOTHINGHERE,10_25_SH_000558.JPG,10_25_SH_000559.JPG,10_25_SH_000560.JPG,10,25,Deciduous,SH,2,2/11/19,5/10/19,5/10/19
37160364,1,NOTHINGHERE,10_25_SH_000564.JPG,10_25_SH_000565.JPG,10_25_SH_000566.JPG,10,25,Deciduous,SH,2,2/11/19,5/10/19,5/10/19
37160365,1,NOTHINGHERE,10_25_SH_000567.JPG,10_25_SH_000568.JPG,10_25_SH_000569.JPG,10,25,Deciduous,SH,2,2/11/19,5/10/19,5/10/19
37160366,1,NOTHINGHERE,10_25_SH_000573.JPG,10_25_SH_000574.JPG,NA,10,25,Deciduous,SH,2,2/11/19,5/10/19,5/10/19
37160367,1,NOTHINGHERE,10_25_SH_000579.JPG,10_25_SH_000580.JPG,10_25_SH_000581.JPG,10,25,Deciduous,SH,2,2/11/19,5/10/19,5/10/19
37160368,1,NOTHINGHERE,10_25_SH_000582.JPG,10_25_SH_000583.JPG,10_25_SH_000584.JPG,10,25,Deciduous,SH,2,2/11/19,5/10/19,5/10/19
37160369,1,NOTHINGHERE,10_25_SH_000585.JPG,10_25_SH_000586.JPG,NA,10,25,Deciduous,SH,2,2/11/19,5/10/19,5/10/19
37160370,1,NOTHINGHERE,10_25_SH_000588.JPG,10_25_SH_000589.JPG,10_25_SH_000590.JPG,10,25,Deciduous,SH,2,2/11/19,5/10/19,5/10/19
37160371,1,NOTHINGHERE,10_25_SH_000591.JPG,10_25_SH_000592.JPG,NA,10,25,Deciduous,SH,2,2/11/19,5/10/19,5/10/19
37160372,1,NOTHINGHERE,10_25_SH_000594.JPG,10_25_SH_000595.JPG,10_25_SH_000596.JPG,10,25,Deciduous,SH,2,2/11/19,5/10/19,5/10/19
37160373,1,NOTHINGHERE,10_25_SH_000597.JPG,10_25_SH_000598.JPG,10_25_SH_000599.JPG,10,25,Deciduous,SH,2,2/11/19,5/10/19,5/10/19
37160374,1,NOTHINGHERE,10_25_SH_000603.JPG,10_25_SH_000604.JPG,10_25_SH_000605.JPG,10,25,Deciduous,SH,2,2/11/19,5/10/19,5/10/19
37160375,1,NOTHINGHERE,10_25_SH_000609.JPG,10_25_SH_000610.JPG,NA,10,25,Deciduous,SH,2,2/11/19,5/10/19,5/10/19
37160376,1,NOTHINGHERE,10_25_SH_000612.JPG,10_25_SH_000613.JPG,NA,10,25,Deciduous,SH,2,2/11/19,5/10/19,5/10/19
37160377,1,NOTHINGHERE,10_25_SH_000615.JPG,10_25_SH_000616.JPG,10_25_SH_000617.JPG,10,25,Deciduous,SH,2,2/11/19,5/10/19,5/10/19
37160378,1,NOTHINGHERE,10_25_SH_000618.JPG,10_25_SH_000619.JPG,10_25_SH_000620.JPG,10,25,Deciduous,SH,2,2/11/19,5/10/19,5/10/19
37160379,1,NOTHINGHERE,10_25_SH_000624.JPG,10_25_SH_000625.JPG,10_25_SH_000626.JPG,10,25,Deciduous,SH,2,2/11/19,5/10/19,5/10/19
37160380,2,NOTHINGHERE,10_25_SH_000627.JPG,10_25_SH_000628.JPG,10_25_SH_000629.JPG,10,25,Deciduous,SH,2,2/11/19,5/10/19,5/10/19
37160381,1,NOTHINGHERE,10_25_SH_000633.JPG,10_25_SH_000634.JPG,NA,10,25,Deciduous,SH,2,2/11/19,5/10/19,5/10/19
37160382,1,NOTHINGHERE,10_25_SH_000639.JPG,10_25_SH_000640.JPG,NA,10,25,Deciduous,SH,2,2/11/19,5/10/19,5/10/19
37160383,1,NOTHINGHERE,10_25_SH_000642.JPG,10_25_SH_000643.JPG,10_25_SH_000644.JPG,10,25,Deciduous,SH,2,2/11/19,5/10/19,5/10/19
37160384,1,NOTHINGHERE,10_25_SH_000645.JPG,10_25_SH_000646.JPG,10_25_SH_000647.JPG,10,25,Deciduous,SH,2,2/11/19,5/10/19,5/10/19
37160385,1,NOTHINGHERE,10_25_SH_000648.JPG,10_25_SH_000649.JPG,10_25_SH_000650.JPG,10,25,Deciduous,SH,2,2/11/19,5/10/19,5/10/19
37160386,1,NOTHINGHERE,10_25_SH_000651.JPG,10_25_SH_000652.JPG,10_25_SH_000653.JPG,10,25,Deciduous,SH,2,2/11/19,5/10/19,5/10/19
37160387,1,NOTHINGHERE,10_25_SH_000654.JPG,10_25_SH_000655.JPG,10_25_SH_000656.JPG,10,25,Deciduous,SH,2,2/11/19,5/10/19,5/10/19
37160388,1,NOTHINGHERE,10_25_SH_000660.JPG,10_25_SH_000661.JPG,10_25_SH_000662.JPG,10,25,Deciduous,SH,2,2/11/19,5/10/19,5/10/19
37160389,1,NOTHINGHERE,10_25_SH_000663.JPG,10_25_SH_000664.JPG,10_25_SH_000665.JPG,10,25,Deciduous,SH,2,2/11/19,5/10/19,5/10/19
37160390,1,NOTHINGHERE,10_25_SH_000666.JPG,10_25_SH_000667.JPG,10_25_SH_000668.JPG,10,25,Deciduous,SH,2,2/11/19,5/10/19,5/10/19
37160391,1,NOTHINGHERE,10_25_SH_000669.JPG,10_25_SH_000670.JPG,NA,10,25,Deciduous,SH,2,2/11/19,5/10/19,5/10/19
37160392,1,NOTHINGHERE,10_25_SH_000672.JPG,10_25_SH_000673.JPG,10_25_SH_000674.JPG,10,25,Deciduous,SH,2,2/11/19,5/10/19,5/10/19
37160393,1,NOTHINGHERE,10_25_SH_000675.JPG,10_25_SH_000676.JPG,10_25_SH_000677.JPG,10,25,Deciduous,SH,2,2/11/19,5/10/19,5/10/19
37160394,1,NOTHINGHERE,10_25_SH_000678.JPG,10_25_SH_000679.JPG,10_25_SH_000680.JPG,10,25,Deciduous,SH,2,2/11/19,5/10/19,5/10/19
37160395,1,NOTHINGHERE,10_25_SH_000681.JPG,10_25_SH_000682.JPG,10_25_SH_000683.JPG,10,25,Deciduous,SH,2,2/11/19,5/10/19,5/10/19
37160396,1,NOTHINGHERE,10_25_SH_000684.JPG,10_25_SH_000685.JPG,10_25_SH_000686.JPG,10,25,Deciduous,SH,2,2/11/19,5/10/19,5/10/19
37160397,1,NOTHINGHERE,10_25_SH_000687.JPG,10_25_SH_000688.JPG,10_25_SH_000689.JPG,10,25,Deciduous,SH,2,2/11/19,5/10/19,5/10/19
37160398,1,NOTHINGHERE,10_25_SH_000696.JPG,10_25_SH_000697.JPG,10_25_SH_000698.JPG,10,25,Deciduous,SH,2,2/11/19,5/10/19,5/10/19
37160399,1,NOTHINGHERE,10_25_SH_000705.JPG,10_25_SH_000706.JPG,10_25_SH_000707.JPG,10,25,Deciduous,SH,2,2/11/19,5/10/19,5/10/19
37160400,1,NOTHINGHERE,10_25_SH_000708.JPG,10_25_SH_000709.JPG,10_25_SH_000710.JPG,10,25,Deciduous,SH,2,2/11/19,5/10/19,5/10/19
37160401,1,NOTHINGHERE,10_25_SH_000712.JPG,10_25_SH_000713.JPG,10_25_SH_000711.JPG,10,25,Deciduous,SH,2,2/11/19,5/10/19,5/10/19
37160402,1,NOTHINGHERE,10_25_SH_000714.JPG,10_25_SH_000715.JPG,10_25_SH_000716.JPG,10,25,Deciduous,SH,2,2/11/19,5/10/19,5/10/19
37160403,2,NOTHINGHERE,10_25_SH_000717.JPG,10_25_SH_000718.JPG,10_25_SH_000719.JPG,10,25,Deciduous,SH,2,2/11/19,5/10/19,5/10/19
37160404,1,NOTHINGHERE,10_25_SH_000720.JPG,10_25_SH_000721.JPG,NA,10,25,Deciduous,SH,2,2/11/19,5/10/19,5/10/19
37160405,1,NOTHINGHERE,10_25_SH_000723.JPG,10_25_SH_000724.JPG,10_25_SH_000725.JPG,10,25,Deciduous,SH,2,2/11/19,5/10/19,5/10/19
37160406,1,NOTHINGHERE,10_25_SH_000726.JPG,10_25_SH_000727.JPG,10_25_SH_000728.JPG,10,25,Deciduous,SH,2,2/11/19,5/10/19,5/10/19
37160407,1,NOTHINGHERE,10_25_SH_000732.JPG,10_25_SH_000733.JPG,10_25_SH_000734.JPG,10,25,Deciduous,SH,2,2/11/19,5/10/19,5/10/19
37160408,1,NOTHINGHERE,10_25_SH_000738.JPG,10_25_SH_000739.JPG,NA,10,25,Deciduous,SH,2,2/11/19,5/10/19,5/10/19
37160409,1,NOTHINGHERE,10_25_SH_000741.JPG,10_25_SH_000742.JPG,10_25_SH_000743.JPG,10,25,Deciduous,SH,2,2/11/19,5/10/19,5/10/19
37160410,1,NOTHINGHERE,10_25_SH_000744.JPG,10_25_SH_000745.JPG,10_25_SH_000746.JPG,10,25,Deciduous,SH,2,2/11/19,5/10/19,5/10/19
37160411,1,NOTHINGHERE,10_25_SH_000750.JPG,10_25_SH_000751.JPG,NA,10,25,Deciduous,SH,2,2/11/19,5/10/19,5/10/19
37160412,1,NOTHINGHERE,10_25_SH_000753.JPG,10_25_SH_000754.JPG,NA,10,25,Deciduous,SH,2,2/11/19,5/10/19,5/10/19
37160413,1,NOTHINGHERE,10_25_SH_000759.JPG,10_25_SH_000760.JPG,NA,10,25,Deciduous,SH,2,2/11/19,5/10/19,5/10/19
37160414,1,NOTHINGHERE,10_25_SH_000762.JPG,10_25_SH_000763.JPG,10_25_SH_000764.JPG,10,25,Deciduous,SH,2,2/11/19,5/10/19,5/10/19
37160416,1,NOTHINGHERE,10_25_SH_000771.JPG,10_25_SH_000772.JPG,10_25_SH_000773.JPG,10,25,Deciduous,SH,2,2/11/19,5/10/19,5/10/19
37160417,1,NOTHINGHERE,10_25_SH_000774.JPG,10_25_SH_000775.JPG,NA,10,25,Deciduous,SH,2,2/11/19,5/10/19,5/10/19
37160418,1,NOTHINGHERE,10_25_SH_000777.JPG,10_25_SH_000778.JPG,10_25_SH_000779.JPG,10,25,Deciduous,SH,2,2/11/19,5/10/19,5/10/19
37160419,1,NOTHINGHERE,10_25_SH_000780.JPG,10_25_SH_000781.JPG,NA,10,25,Deciduous,SH,2,2/11/19,5/10/19,5/10/19
37160420,1,NOTHINGHERE,10_25_SH_000783.JPG,10_25_SH_000784.JPG,10_25_SH_000785.JPG,10,25,Deciduous,SH,2,2/11/19,5/10/19,5/10/19
37160421,1,NOTHINGHERE,10_25_SH_000786.JPG,10_25_SH_000787.JPG,NA,10,25,Deciduous,SH,2,2/11/19,5/10/19,5/10/19
37160422,1,NOTHINGHERE,10_25_SH_000789.JPG,10_25_SH_000790.JPG,10_25_SH_000791.JPG,10,25,Deciduous,SH,2,2/11/19,5/10/19,5/10/19
37160423,1,NOTHINGHERE,10_25_SH_000792.JPG,10_25_SH_000793.JPG,NA,10,25,Deciduous,SH,2,2/11/19,5/10/19,5/10/19
37160424,1,NOTHINGHERE,10_25_SH_000795.JPG,10_25_SH_000796.JPG,NA,10,25,Deciduous,SH,2,2/11/19,5/10/19,5/10/19
37160425,1,NOTHINGHERE,10_25_SH_000801.JPG,10_25_SH_000802.JPG,10_25_SH_000803.JPG,10,25,Deciduous,SH,2,2/11/19,5/10/19,5/10/19
37160426,1,NOTHINGHERE,10_25_SH_000804.JPG,10_25_SH_000805.JPG,10_25_SH_000806.JPG,10,25,Deciduous,SH,2,2/11/19,5/10/19,5/10/19
37160427,1,SOMETHINGHERE,10_25_SH_000807.JPG,10_25_SH_000808.JPG,NA,10,25,Deciduous,SH,2,2/11/19,5/10/19,5/10/19
37160428,1,NOTHINGHERE,10_25_SH_000810.JPG,10_25_SH_000811.JPG,10_25_SH_000812.JPG,10,25,Deciduous,SH,2,2/11/19,5/10/19,5/10/19
37160429,1,NOTHINGHERE,10_25_SH_000813.JPG,10_25_SH_000814.JPG,10_25_SH_000815.JPG,10,25,Deciduous,SH,2,2/11/19,5/10/19,5/10/19
37160430,1,NOTHINGHERE,10_25_SH_000816.JPG,10_25_SH_000817.JPG,10_25_SH_000818.JPG,10,25,Deciduous,SH,2,2/11/19,5/10/19,5/10/19
37160431,1,NOTHINGHERE,10_25_SH_000822.JPG,10_25_SH_000823.JPG,10_25_SH_000824.JPG,10,25,Deciduous,SH,2,2/11/19,5/10/19,5/10/19
37160432,1,NOTHINGHERE,10_25_SH_000825.JPG,10_25_SH_000826.JPG,10_25_SH_000827.JPG,10,25,Deciduous,SH,2,2/11/19,5/10/19,5/10/19
37160433,1,NOTHINGHERE,10_25_SH_000828.JPG,10_25_SH_000829.JPG,10_25_SH_000830.JPG,10,25,Deciduous,SH,2,2/11/19,5/10/19,5/10/19
37160434,1,NOTHINGHERE,10_25_SH_000831.JPG,10_25_SH_000832.JPG,10_25_SH_000833.JPG,10,25,Deciduous,SH,2,2/11/19,5/10/19,5/10/19
37160435,1,NOTHINGHERE,10_25_SH_000834.JPG,10_25_SH_000835.JPG,10_25_SH_000836.JPG,10,25,Deciduous,SH,2,2/11/19,5/10/19,5/10/19
37160436,1,NOTHINGHERE,10_25_SH_000837.JPG,10_25_SH_000838.JPG,NA,10,25,Deciduous,SH,2,2/11/19,5/10/19,5/10/19
37160437,1,NOTHINGHERE,10_25_SH_000846.JPG,10_25_SH_000847.JPG,NA,10,25,Deciduous,SH,2,2/11/19,5/10/19,5/10/19
37160438,1,NOTHINGHERE,10_25_SH_000852.JPG,10_25_SH_000853.JPG,10_25_SH_000854.JPG,10,25,Deciduous,SH,2,2/11/19,5/10/19,5/10/19
37160439,1,NOTHINGHERE,10_25_SH_000858.JPG,10_25_SH_000859.JPG,10_25_SH_000860.JPG,10,25,Deciduous,SH,2,2/11/19,5/10/19,5/10/19
37160440,1,NOTHINGHERE,10_25_SH_000864.JPG,10_25_SH_000865.JPG,10_25_SH_000866.JPG,10,25,Deciduous,SH,2,2/11/19,5/10/19,5/10/19
37160441,1,NOTHINGHERE,10_25_SH_000870.JPG,10_25_SH_000871.JPG,NA,10,25,Deciduous,SH,2,2/11/19,5/10/19,5/10/19
37160442,1,NOTHINGHERE,10_25_SH_000876.JPG,10_25_SH_000877.JPG,NA,10,25,Deciduous,SH,2,2/11/19,5/10/19,5/10/19
37160443,1,NOTHINGHERE,10_25_SH_000879.JPG,10_25_SH_000880.JPG,10_25_SH_000881.JPG,10,25,Deciduous,SH,2,2/11/19,5/10/19,5/10/19
37160444,1,NOTHINGHERE,10_25_SH_000882.JPG,10_25_SH_000883.JPG,10_25_SH_000884.JPG,10,25,Deciduous,SH,2,2/11/19,5/10/19,5/10/19
37160445,1,NOTHINGHERE,10_25_SH_000885.JPG,10_25_SH_000886.JPG,10_25_SH_000887.JPG,10,25,Deciduous,SH,2,2/11/19,5/10/19,5/10/19
37160446,1,NOTHINGHERE,10_25_SH_000888.JPG,10_25_SH_000889.JPG,10_25_SH_000890.JPG,10,25,Deciduous,SH,2,2/11/19,5/10/19,5/10/19
37160447,1,NOTHINGHERE,10_25_SH_000894.JPG,10_25_SH_000895.JPG,10_25_SH_000896.JPG,10,25,Deciduous,SH,2,2/11/19,5/10/19,5/10/19
37160448,1,NOTHINGHERE,10_25_SH_000897.JPG,10_25_SH_000898.JPG,10_25_SH_000899.JPG,10,25,Deciduous,SH,2,2/11/19,5/10/19,5/10/19
37160449,1,NOTHINGHERE,10_25_SH_000900.JPG,10_25_SH_000901.JPG,10_25_SH_000902.JPG,10,25,Deciduous,SH,2,2/11/19,5/10/19,5/10/19
37160450,2,NOTHINGHERE,10_25_SH_000903.JPG,10_25_SH_000904.JPG,NA,10,25,Deciduous,SH,2,2/11/19,5/10/19,5/10/19
37160451,1,NOTHINGHERE,10_25_SH_000906.JPG,10_25_SH_000907.JPG,10_25_SH_000908.JPG,10,25,Deciduous,SH,2,2/11/19,5/10/19,5/10/19
37160452,1,NOTHINGHERE,10_25_SH_000912.JPG,10_25_SH_000913.JPG,NA,10,25,Deciduous,SH,2,2/11/19,5/10/19,5/10/19
37160453,1,NOTHINGHERE,10_25_SH_000918.JPG,10_25_SH_000919.JPG,10_25_SH_000920.JPG,10,25,Deciduous,SH,2,2/11/19,5/10/19,5/10/19
37160454,1,NOTHINGHERE,10_25_SH_000927.JPG,10_25_SH_000928.JPG,NA,10,25,Deciduous,SH,2,2/11/19,5/10/19,5/10/19
37160455,1,NOTHINGHERE,10_25_SH_000930.JPG,10_25_SH_000931.JPG,NA,10,25,Deciduous,SH,2,2/11/19,5/10/19,5/10/19
37160456,1,NOTHINGHERE,10_25_SH_000933.JPG,10_25_SH_000934.JPG,NA,10,25,Deciduous,SH,2,2/11/19,5/10/19,5/10/19
37160457,1,NOTHINGHERE,10_25_SH_000936.JPG,10_25_SH_000937.JPG,10_25_SH_000938.JPG,10,25,Deciduous,SH,2,2/11/19,5/10/19,5/10/19
37160458,1,NOTHINGHERE,10_25_SH_000942.JPG,10_25_SH_000943.JPG,10_25_SH_000944.JPG,10,25,Deciduous,SH,2,2/11/19,5/10/19,5/10/19
37160459,1,NOTHINGHERE,10_25_SH_000945.JPG,10_25_SH_000946.JPG,10_25_SH_000947.JPG,10,25,Deciduous,SH,2,2/11/19,5/10/19,5/10/19
37160460,1,NOTHINGHERE,10_25_SH_000948.JPG,10_25_SH_000949.JPG,10_25_SH_000950.JPG,10,25,Deciduous,SH,2,2/11/19,5/10/19,5/10/19
37160461,1,NOTHINGHERE,10_25_SH_000954.JPG,10_25_SH_000955.JPG,NA,10,25,Deciduous,SH,2,2/11/19,5/10/19,5/10/19
37160462,1,NOTHINGHERE,10_25_SH_000957.JPG,10_25_SH_000958.JPG,10_25_SH_000959.JPG,10,25,Deciduous,SH,2,2/11/19,5/10/19,5/10/19
37160463,1,NOTHINGHERE,10_25_SH_000960.JPG,10_25_SH_000961.JPG,NA,10,25,Deciduous,SH,2,2/11/19,5/10/19,5/10/19
37160464,1,NOTHINGHERE,10_25_SH_000963.JPG,10_25_SH_000964.JPG,NA,10,25,Deciduous,SH,2,2/11/19,5/10/19,5/10/19
37160465,1,NOTHINGHERE,10_25_SH_000966.JPG,10_25_SH_000967.JPG,NA,10,25,Deciduous,SH,2,2/11/19,5/10/19,5/10/19
37160466,1,NOTHINGHERE,10_25_SH_000975.JPG,10_25_SH_000976.JPG,10_25_SH_000977.JPG,10,25,Deciduous,SH,2,2/11/19,5/10/19,5/10/19
37160467,1,NOTHINGHERE,10_25_SH_000978.JPG,10_25_SH_000979.JPG,10_25_SH_000980.JPG,10,25,Deciduous,SH,2,2/11/19,5/10/19,5/10/19
37160468,1,NOTHINGHERE,10_25_SH_000981.JPG,10_25_SH_000982.JPG,NA,10,25,Deciduous,SH,2,2/11/19,5/10/19,5/10/19
37160469,1,NOTHINGHERE,10_25_SH_000984.JPG,10_25_SH_000985.JPG,NA,10,25,Deciduous,SH,2,2/11/19,5/10/19,5/10/19
37160470,1,NOTHINGHERE,10_25_SH_000987.JPG,10_25_SH_000988.JPG,10_25_SH_000989.JPG,10,25,Deciduous,SH,2,2/11/19,5/10/19,5/10/19
37160471,1,NOTHINGHERE,10_25_SH_000990.JPG,10_25_SH_000991.JPG,NA,10,25,Deciduous,SH,2,2/11/19,5/10/19,5/10/19
37160472,1,NOTHINGHERE,10_25_SH_000993.JPG,10_25_SH_000994.JPG,NA,10,25,Deciduous,SH,2,2/11/19,5/10/19,5/10/19
37160473,1,NOTHINGHERE,10_25_SH_000996.JPG,10_25_SH_000997.JPG,10_25_SH_000998.JPG,10,25,Deciduous,SH,2,2/11/19,5/10/19,5/10/19
37160474,1,NOTHINGHERE,10_25_SH_001002.JPG,10_25_SH_001003.JPG,NA,10,25,Deciduous,SH,2,2/11/19,5/10/19,5/10/19
37160475,1,NOTHINGHERE,10_25_SH_001005.JPG,10_25_SH_001006.JPG,10_25_SH_001007.JPG,10,25,Deciduous,SH,2,2/11/19,5/10/19,5/10/19
37160476,1,NOTHINGHERE,10_25_SH_001023.JPG,10_25_SH_001024.JPG,NA,10,25,Deciduous,SH,2,2/11/19,5/10/19,5/10/19
37160477,1,NOTHINGHERE,10_25_SH_001038.JPG,10_25_SH_001039.JPG,10_25_SH_001040.JPG,10,25,Deciduous,SH,2,2/11/19,5/10/19,5/10/19
37160478,1,NOTHINGHERE,10_25_SH_001044.JPG,10_25_SH_001045.JPG,10_25_SH_001046.JPG,10,25,Deciduous,SH,2,2/11/19,5/10/19,5/10/19
37160479,1,NOTHINGHERE,10_25_SH_001053.JPG,10_25_SH_001054.JPG,NA,10,25,Deciduous,SH,2,2/11/19,5/10/19,5/10/19
37160480,1,NOTHINGHERE,10_25_SH_001056.JPG,10_25_SH_001057.JPG,10_25_SH_001058.JPG,10,25,Deciduous,SH,2,2/11/19,5/10/19,5/10/19
37160481,1,NOTHINGHERE,10_25_SH_001059.JPG,10_25_SH_001060.JPG,NA,10,25,Deciduous,SH,2,2/11/19,5/10/19,5/10/19
37160482,1,NOTHINGHERE,10_25_SH_001062.JPG,10_25_SH_001063.JPG,10_25_SH_001064.JPG,10,25,Deciduous,SH,2,2/11/19,5/10/19,5/10/19
37160483,1,NOTHINGHERE,10_25_SH_001074.JPG,10_25_SH_001075.JPG,NA,10,25,Deciduous,SH,2,2/11/19,5/10/19,5/10/19
37160484,1,NOTHINGHERE,10_25_SH_001077.JPG,10_25_SH_001078.JPG,10_25_SH_001079.JPG,10,25,Deciduous,SH,2,2/11/19,5/10/19,5/10/19
37160485,1,NOTHINGHERE,10_25_SH_001080.JPG,10_25_SH_001081.JPG,10_25_SH_001082.JPG,10,25,Deciduous,SH,2,2/11/19,5/10/19,5/10/19
37160486,1,NOTHINGHERE,10_25_SH_001086.JPG,10_25_SH_001087.JPG,10_25_SH_001088.JPG,10,25,Deciduous,SH,2,2/11/19,5/10/19,5/10/19
37160487,1,NOTHINGHERE,10_25_SH_001089.JPG,10_25_SH_001090.JPG,NA,10,25,Deciduous,SH,2,2/11/19,5/10/19,5/10/19
37160488,1,NOTHINGHERE,10_25_SH_001092.JPG,10_25_SH_001093.JPG,NA,10,25,Deciduous,SH,2,2/11/19,5/10/19,5/10/19
37160489,1,NOTHINGHERE,10_25_SH_001095.JPG,10_25_SH_001096.JPG,10_25_SH_001097.JPG,10,25,Deciduous,SH,2,2/11/19,5/10/19,5/10/19
37160490,1,NOTHINGHERE,10_25_SH_001101.JPG,10_25_SH_001102.JPG,10_25_SH_001103.JPG,10,25,Deciduous,SH,2,2/11/19,5/10/19,5/10/19
37160491,1,NOTHINGHERE,10_25_SH_001104.JPG,10_25_SH_001105.JPG,10_25_SH_001106.JPG,10,25,Deciduous,SH,2,2/11/19,5/10/19,5/10/19
37160492,1,NOTHINGHERE,10_25_SH_001107.JPG,10_25_SH_001108.JPG,10_25_SH_001109.JPG,10,25,Deciduous,SH,2,2/11/19,5/10/19,5/10/19
37160493,1,NOTHINGHERE,10_25_SH_001113.JPG,10_25_SH_001114.JPG,NA,10,25,Deciduous,SH,2,2/11/19,5/10/19,5/10/19
37160494,1,NOTHINGHERE,10_25_SH_001116.JPG,10_25_SH_001117.JPG,10_25_SH_001118.JPG,10,25,Deciduous,SH,2,2/11/19,5/10/19,5/10/19
37160495,1,NOTHINGHERE,10_25_SH_001119.JPG,10_25_SH_001120.JPG,10_25_SH_001121.JPG,10,25,Deciduous,SH,2,2/11/19,5/10/19,5/10/19
37160496,1,NOTHINGHERE,10_25_SH_001122.JPG,10_25_SH_001123.JPG,10_25_SH_001124.JPG,10,25,Deciduous,SH,2,2/11/19,5/10/19,5/10/19
37160497,1,NOTHINGHERE,10_25_SH_001125.JPG,10_25_SH_001126.JPG,10_25_SH_001127.JPG,10,25,Deciduous,SH,2,2/11/19,5/10/19,5/10/19
37160498,1,NOTHINGHERE,10_25_SH_001128.JPG,10_25_SH_001129.JPG,10_25_SH_001130.JPG,10,25,Deciduous,SH,2,2/11/19,5/10/19,5/10/19
41008453,1,SQUIRRELGRAY,10_35_DON_000001.JPG,10_35_DON_000002.JPG,10_35_DON_000003.JPG,10,35,Deciduous,DON,4,9/17/19,11/15/19,11/15/19
41008454,1,CHIPMUNK,10_35_DON_000004.JPG,10_35_DON_000005.JPG,10_35_DON_000006.JPG,10,35,Deciduous,DON,4,9/17/19,11/15/19,11/15/19
41008455,1,OTHERSMALLMAMMAL,10_35_DON_000007.JPG,10_35_DON_000008.JPG,10_35_DON_000009.JPG,10,35,Deciduous,DON,4,9/17/19,11/15/19,11/15/19
41008463,1,DEERWHITETAILED,10_35_DON_000010.JPG,10_35_DON_000011.JPG,10_35_DON_000012.JPG,10,35,Deciduous,DON,4,9/17/19,11/15/19,11/15/19
41008473,1,NOTHINGHERE,10_35_DON_000013.JPG,10_35_DON_000014.JPG,10_35_DON_000015.JPG,10,35,Deciduous,DON,4,9/17/19,11/15/19,11/15/19
41008474,2,NOTHINGHERE,10_35_DON_000016.JPG,10_35_DON_000017.JPG,10_35_DON_000018.JPG,10,35,Deciduous,DON,4,9/17/19,11/15/19,11/15/19
41008475,1,NOTHINGHERE,10_35_DON_000019.JPG,10_35_DON_000020.JPG,10_35_DON_000021.JPG,10,35,Deciduous,DON,4,9/17/19,11/15/19,11/15/19
41008476,1,NOTHINGHERE,10_35_DON_000022.JPG,10_35_DON_000023.JPG,10_35_DON_000024.JPG,10,35,Deciduous,DON,4,9/17/19,11/15/19,11/15/19
41008477,1,NOTHINGHERE,10_35_DON_000025.JPG,10_35_DON_000026.JPG,10_35_DON_000027.JPG,10,35,Deciduous,DON,4,9/17/19,11/15/19,11/15/19
41008478,1,NOTHINGHERE,10_35_DON_000028.JPG,10_35_DON_000029.JPG,10_35_DON_000030.JPG,10,35,Deciduous,DON,4,9/17/19,11/15/19,11/15/19
41008479,1,NOTHINGHERE,10_35_DON_000031.JPG,10_35_DON_000032.JPG,10_35_DON_000033.JPG,10,35,Deciduous,DON,4,9/17/19,11/15/19,11/15/19
41008480,1,NOTHINGHERE,10_35_DON_000034.JPG,10_35_DON_000035.JPG,10_35_DON_000036.JPG,10,35,Deciduous,DON,4,9/17/19,11/15/19,11/15/19
41008481,1,NOTHINGHERE,10_35_DON_000037.JPG,10_35_DON_000038.JPG,10_35_DON_000039.JPG,10,35,Deciduous,DON,4,9/17/19,11/15/19,11/15/19
41008482,1,NOTHINGHERE,10_35_DON_000040.JPG,10_35_DON_000041.JPG,10_35_DON_000042.JPG,10,35,Deciduous,DON,4,9/17/19,11/15/19,11/15/19
41008483,1,NOTHINGHERE,10_35_DON_000043.JPG,10_35_DON_000044.JPG,10_35_DON_000045.JPG,10,35,Deciduous,DON,4,9/17/19,11/15/19,11/15/19
41008484,1,NOTHINGHERE,10_35_DON_000046.JPG,10_35_DON_000047.JPG,10_35_DON_000048.JPG,10,35,Deciduous,DON,4,9/17/19,11/15/19,11/15/19
41008485,1,NOTHINGHERE,10_35_DON_000049.JPG,10_35_DON_000050.JPG,10_35_DON_000051.JPG,10,35,Deciduous,DON,4,9/17/19,11/15/19,11/15/19
41008486,1,NOTHINGHERE,10_35_DON_000052.JPG,10_35_DON_000053.JPG,10_35_DON_000054.JPG,10,35,Deciduous,DON,4,9/17/19,11/15/19,11/15/19
41008487,1,NOTHINGHERE,10_35_DON_000055.JPG,10_35_DON_000056.JPG,10_35_DON_000057.JPG,10,35,Deciduous,DON,4,9/17/19,11/15/19,11/15/19
41008488,1,NOTHINGHERE,10_35_DON_000058.JPG,10_35_DON_000059.JPG,10_35_DON_000060.JPG,10,35,Deciduous,DON,4,9/17/19,11/15/19,11/15/19
41008489,1,NOTHINGHERE,10_35_DON_000061.JPG,10_35_DON_000062.JPG,10_35_DON_000063.JPG,10,35,Deciduous,DON,4,9/17/19,11/15/19,11/15/19
41008490,1,NOTHINGHERE,10_35_DON_000064.JPG,10_35_DON_000065.JPG,10_35_DON_000066.JPG,10,35,Deciduous,DON,4,9/17/19,11/15/19,11/15/19
41008491,1,NOTHINGHERE,10_35_DON_000067.JPG,10_35_DON_000068.JPG,10_35_DON_000069.JPG,10,35,Deciduous,DON,4,9/17/19,11/15/19,11/15/19
41008492,1,NOTHINGHERE,10_35_DON_000070.JPG,10_35_DON_000071.JPG,10_35_DON_000072.JPG,10,35,Deciduous,DON,4,9/17/19,11/15/19,11/15/19
41008493,1,NOTHINGHERE,10_35_DON_000073.JPG,10_35_DON_000074.JPG,10_35_DON_000075.JPG,10,35,Deciduous,DON,4,9/17/19,11/15/19,11/15/19
41008494,1,NOTHINGHERE,10_35_DON_000076.JPG,10_35_DON_000077.JPG,10_35_DON_000078.JPG,10,35,Deciduous,DON,4,9/17/19,11/15/19,11/15/19
41008495,1,NOTHINGHERE,10_35_DON_000079.JPG,10_35_DON_000080.JPG,10_35_DON_000081.JPG,10,35,Deciduous,DON,4,9/17/19,11/15/19,11/15/19
