,subject_ids,diff_species,choice,Imj1,Imj2,Img3,CamNum,SD_card_num,ForestType,ForestName,round,Date_Out,Date_Checked,Use_End_Date,Trophic
52,39638627,2,BLACKBEAR,02_07_SH_000016.JPG,02_07_SH_000017.JPG,02_07_SH_000018.JPG,2,7,Deciduous,SH,4,9/20/19,12/7/19,9/25/19,Omnivore
53,39638631,1,BLACKBEAR,02_07_SH_000019.JPG,02_07_SH_000020.JPG,02_07_SH_000021.JPG,2,7,Deciduous,SH,4,9/20/19,12/7/19,9/25/19,Omnivore
177,37156621,1,BLACKBEAR,04_36_WF_000049.JPG,04_36_WF_000050.JPG,04_36_WF_000051.JPG,4,36,Pine,WF,2,1/31/19,5/15/19,3/26/19,Omnivore
256,37822308,1,BLACKBEAR,06_41_DON_07190130.JPG,06_41_DON_07190131.JPG,06_41_DON_07190132.JPG,6,41,Deciduous,DON,3,5/16/19,9/7/19,9/6/19,Omnivore
551,39638589,2,BLACKBEAR,15_06_SH_000001.JPG,15_06_SH_000002.JPG,15_06_SH_000003.JPG,15,6,Deciduous,SH,4,9/20/19,12/7/19,12/7/19,Omnivore
552,39638590,1,BLACKBEAR,15_06_SH_000004.JPG,15_06_SH_000005.JPG,15_06_SH_000006.JPG,15,6,Deciduous,SH,4,9/20/19,12/7/19,12/7/19,Omnivore
952,37161942,1,BLACKBEAR,17_08_BC_000100.JPG,17_08_BC_000101.JPG,17_08_BC_000102.JPG,17,8,Deciduous,BC,2,3/4/19,5/11/19,5/11/19,Omnivore
1208,41008515,1,BLACKBEAR,21_40_DON_0058.JPG,21_40_DON_0059.JPG,21_40_DON_0060.JPG,21,40,Deciduous,DON,4,9/17/19,11/15/19,9/28/19,Omnivore
1705,41008525,2,BLACKBEAR,27_41_BC_0007.JPG,27_41_BC_0008.JPG,27_41_BC_0009.JPG,27,41,Deciduous,BC,4,10/9/19,12/14/19,10/13/19,Omnivore
1706,41008526,1,BLACKBEAR,27_41_BC_0010.JPG,27_41_BC_0011.JPG,27_41_BC_0012.JPG,27,41,Deciduous,BC,4,10/9/19,12/14/19,10/13/19,Omnivore
1717,39638587,1,BLACKBEAR,28_01_SH_0004.JPG,28_01_SH_0005.JPG,28_01_SH_0006.JPG,28,1,Deciduous,SH,4,9/20/19,12/7/19,12/7/19,Omnivore
1718,39638588,1,BLACKBEAR,28_01_SH_0007.JPG,28_01_SH_0008.JPG,28_01_SH_0009.JPG,28,1,Deciduous,SH,4,9/20/19,12/7/19,12/7/19,Omnivore
2183,37162528,1,BLACKBEAR,30_22_BC_0355.JPG,30_22_BC_0356.JPG,30_22_BC_0357.JPG,30,22,Deciduous,BC,2,3/4/19,5/11/19,5/11/19,Omnivore
2192,37162541,1,BLACKBEAR,30_22_BC_0400.JPG,30_22_BC_0401.JPG,30_22_BC_0402.JPG,30,22,Deciduous,BC,2,3/4/19,5/11/19,5/11/19,Omnivore
2222,37820820,1,BLACKBEAR,31_03_WHIP_0463.JPG,31_03_WHIP_0464.JPG,31_03_WHIP_0465.JPG,31,3,Pine,WHIP,3,5/13/19,9/4/19,6/9/19,Omnivore
2444,37820921,1,BLACKBEAR,32_26_WF_0085.JPG,32_26_WF_0086.JPG,32_26_WF_0087.JPG,32,26,Pine,WF,3,5/15/19,9/3/19,8/9/19,Omnivore
2445,37820923,1,BLACKBEAR,32_26_WF_0088.JPG,32_26_WF_0089.JPG,32_26_WF_0090.JPG,32,26,Pine,WF,3,5/15/19,9/3/19,8/9/19,Omnivore
2454,37822254,1,BLACKBEAR,32_26_WF_0289.JPG,32_26_WF_0290.JPG,32_26_WF_0291.JPG,32,26,Pine,WF,3,5/15/19,9/3/19,8/9/19,Omnivore
2684,39906356,1,BLACKBEAR,34_21_WF_0076.JPG,34_21_WF_0077.JPG,34_21_WF_0078.JPG,34,21,Pine,WF,4,9/29/19,1/26/20,12/14/19,Omnivore
2815,39906325,1,BLACKBEAR,36_32_WF_0055.JPG,36_32_WF_0056.JPG,36_32_WF_0057.JPG,36,32,Pine,WF,4,9/29/19,1/26/20,12/18/19,Omnivore
407,31428362,1,BOBCAT,11_13_BC_000145.JPG,11_13_BC_000146.JPG,11_13_BC_000147.JPG,11,13,Deciduous,BC,1,11/15/18,3/4/19,3/4/19,Mesocarnivore
744,39640012,1,BOBCAT,15_06_SH_000595.JPG,15_06_SH_000596.JPG,15_06_SH_000597.JPG,15,6,Deciduous,SH,4,9/20/19,12/7/19,12/7/19,Mesocarnivore
949,37161938,1,BOBCAT,17_08_BC_000088.JPG,17_08_BC_000089.JPG,17_08_BC_000090.JPG,17,8,Deciduous,BC,2,3/4/19,5/11/19,5/11/19,Mesocarnivore
1612,37162255,2,BOBCAT,24_18_BC_0052.JPG,24_18_BC_0053.JPG,24_18_BC_0054.JPG,24,18,Deciduous,BC,2,3/4/19,5/11/19,5/11/19,Mesocarnivore
1692,37814592,1,BOBCAT,27_08_IMG_0004.JPG,27_08_IMG_0005.JPG,27_08_IMG_0006.JPG,27,8,Deciduous,DON,1,12/13/18,2/25/19,2/25/19,Mesocarnivore
2794,40303421,1,BOBCAT,35_16_BC_0115.JPG,35_16_BC_0116.JPG,35_16_BC_0117.JPG,35,16,Deciduous,BC,4,10/19/19,2/2/20,12/19/19,Mesocarnivore
3,39638739,1,CHIPMUNK,01_23_DEG_000007.JPG,01_23_DEG_000008.JPG,01_23_DEG_000009.JPG,1,23,Pine,DEG,4,9/27/19,11/17/19,11/17/19,Herbivore
10,39638904,1,CHIPMUNK,01_23_DEG_000034.JPG,01_23_DEG_000035.JPG,01_23_DEG_000036.JPG,1,23,Pine,DEG,4,9/27/19,11/17/19,11/17/19,Herbivore
11,39638906,1,CHIPMUNK,01_23_DEG_000037.JPG,01_23_DEG_000038.JPG,01_23_DEG_000039.JPG,1,23,Pine,DEG,4,9/27/19,11/17/19,11/17/19,Herbivore
17,39638986,2,CHIPMUNK,01_23_DEG_000055.JPG,01_23_DEG_000056.JPG,01_23_DEG_000057.JPG,1,23,Pine,DEG,4,9/27/19,11/17/19,11/17/19,Herbivore
18,39638989,1,CHIPMUNK,01_23_DEG_000058.JPG,01_23_DEG_000059.JPG,01_23_DEG_000060.JPG,1,23,Pine,DEG,4,9/27/19,11/17/19,11/17/19,Herbivore
19,39639040,1,CHIPMUNK,01_23_DEG_000061.JPG,01_23_DEG_000062.JPG,01_23_DEG_000063.JPG,1,23,Pine,DEG,4,9/27/19,11/17/19,11/17/19,Herbivore
22,39639134,1,CHIPMUNK,01_23_DEG_000070.JPG,01_23_DEG_000071.JPG,01_23_DEG_000072.JPG,1,23,Pine,DEG,4,9/27/19,11/17/19,11/17/19,Herbivore
23,39639136,1,CHIPMUNK,01_23_DEG_000073.JPG,01_23_DEG_000074.JPG,01_23_DEG_000075.JPG,1,23,Pine,DEG,4,9/27/19,11/17/19,11/17/19,Herbivore
289,39638705,1,CHIPMUNK,07_42_WHIP_000034.JPG,07_42_WHIP_000035.JPG,07_42_WHIP_000036.JPG,7,42,Pine,WHIP,4,9/27/19,11/12/19,11/11/19,Herbivore
293,39638789,2,CHIPMUNK,07_42_WHIP_000056.JPG,07_42_WHIP_000055.JPG,07_42_WHIP_000057.JPG,7,42,Pine,WHIP,4,9/27/19,11/12/19,11/11/19,Herbivore
303,39638941,2,CHIPMUNK,07_42_WHIP_000088.JPG,07_42_WHIP_000089.JPG,07_42_WHIP_000090.JPG,7,42,Pine,WHIP,4,9/27/19,11/12/19,11/11/19,Herbivore
309,39638990,1,CHIPMUNK,07_42_WHIP_000109.JPG,07_42_WHIP_000110.JPG,07_42_WHIP_000111.JPG,7,42,Pine,WHIP,4,9/27/19,11/12/19,11/11/19,Herbivore
311,39638992,1,CHIPMUNK,07_42_WHIP_000115.JPG,07_42_WHIP_000116.JPG,07_42_WHIP_000117.JPG,7,42,Pine,WHIP,4,9/27/19,11/12/19,11/11/19,Herbivore
312,39638993,1,CHIPMUNK,07_42_WHIP_000118.JPG,07_42_WHIP_000119.JPG,07_42_WHIP_000120.JPG,7,42,Pine,WHIP,4,9/27/19,11/12/19,11/11/19,Herbivore
313,39639006,1,CHIPMUNK,07_42_WHIP_000121.JPG,07_42_WHIP_000122.JPG,07_42_WHIP_000123.JPG,7,42,Pine,WHIP,4,9/27/19,11/12/19,11/11/19,Herbivore
314,39639036,1,CHIPMUNK,07_42_WHIP_000124.JPG,07_42_WHIP_000125.JPG,07_42_WHIP_000126.JPG,7,42,Pine,WHIP,4,9/27/19,11/12/19,11/11/19,Herbivore
315,39639039,1,CHIPMUNK,07_42_WHIP_000127.JPG,07_42_WHIP_000128.JPG,07_42_WHIP_000129.JPG,7,42,Pine,WHIP,4,9/27/19,11/12/19,11/11/19,Herbivore
318,39639066,2,CHIPMUNK,07_42_WHIP_000136.JPG,07_42_WHIP_000137.JPG,07_42_WHIP_000138.JPG,7,42,Pine,WHIP,4,9/27/19,11/12/19,11/11/19,Herbivore
330,39639447,1,CHIPMUNK,07_42_WHIP_000181.JPG,07_42_WHIP_000182.JPG,07_42_WHIP_000183.JPG,7,42,Pine,WHIP,4,9/27/19,11/12/19,11/11/19,Herbivore
331,39639449,1,CHIPMUNK,07_42_WHIP_000184.JPG,07_42_WHIP_000185.JPG,07_42_WHIP_000186.JPG,7,42,Pine,WHIP,4,9/27/19,11/12/19,11/11/19,Herbivore
338,39639578,1,CHIPMUNK,07_42_WHIP_000208.JPG,07_42_WHIP_000209.JPG,07_42_WHIP_000210.JPG,7,42,Pine,WHIP,4,9/27/19,11/12/19,11/11/19,Herbivore
339,39639583,1,CHIPMUNK,07_42_WHIP_000211.JPG,07_42_WHIP_000212.JPG,07_42_WHIP_000213.JPG,7,42,Pine,WHIP,4,9/27/19,11/12/19,11/11/19,Herbivore
360,41008454,1,CHIPMUNK,10_35_DON_000004.JPG,10_35_DON_000005.JPG,10_35_DON_000006.JPG,10,35,Deciduous,DON,4,9/17/19,11/15/19,11/15/19,Herbivore
364,41008521,1,CHIPMUNK,10_35_DON_000151.JPG,10_35_DON_000152.JPG,10_35_DON_000153.JPG,10,35,Deciduous,DON,4,9/17/19,11/15/19,11/15/19,Herbivore
642,39639451,2,CHIPMUNK,15_06_SH_000283.JPG,15_06_SH_000284.JPG,15_06_SH_000285.JPG,15,6,Deciduous,SH,4,9/20/19,12/7/19,12/7/19,Herbivore
852,37820598,1,CHIPMUNK,15_16_WHIP_000055.JPG,15_16_WHIP_000056.JPG,15_16_WHIP_000057.JPG,15,16,Pine,WHIP,3,5/13/19,9/4/19,9/3/19,Herbivore
868,37821305,1,CHIPMUNK,15_16_WHIP_000112.JPG,15_16_WHIP_000113.JPG,15_16_WHIP_000114.JPG,15,16,Pine,WHIP,3,5/13/19,9/4/19,9/3/19,Herbivore
872,37821588,1,CHIPMUNK,15_16_WHIP_000139.JPG,15_16_WHIP_000140.JPG,15_16_WHIP_000141.JPG,15,16,Pine,WHIP,3,5/13/19,9/4/19,9/3/19,Herbivore
882,37821967,2,CHIPMUNK,15_16_WHIP_000184.JPG,15_16_WHIP_000185.JPG,15_16_WHIP_000186.JPG,15,16,Pine,WHIP,3,5/13/19,9/4/19,9/3/19,Herbivore
899,37822576,1,CHIPMUNK,15_16_WHIP_000256.JPG,15_16_WHIP_000257.JPG,15_16_WHIP_000258.JPG,15,16,Pine,WHIP,3,5/13/19,9/4/19,9/3/19,Herbivore
901,37822647,1,CHIPMUNK,15_16_WHIP_000268.JPG,15_16_WHIP_000269.JPG,15_16_WHIP_000270.JPG,15,16,Pine,WHIP,3,5/13/19,9/4/19,9/3/19,Herbivore
1051,39638709,1,CHIPMUNK,17_26_WHIP_000016.JPG,17_26_WHIP_000017.JPG,17_26_WHIP_000018.JPG,17,26,Pine,WHIP,4,9/27/19,11/15/19,11/15/19,Herbivore
1194,41008456,1,CHIPMUNK,21_40_DON_0007.JPG,21_40_DON_0008.JPG,21_40_DON_0009.JPG,21,40,Deciduous,DON,4,9/17/19,11/15/19,9/28/19,Herbivore
1195,41008457,1,CHIPMUNK,21_40_DON_0010.JPG,21_40_DON_0011.JPG,21_40_DON_0012.JPG,21,40,Deciduous,DON,4,9/17/19,11/15/19,9/28/19,Herbivore
1197,41008459,1,CHIPMUNK,21_40_DON_0016.JPG,21_40_DON_0017.JPG,21_40_DON_0018.JPG,21,40,Deciduous,DON,4,9/17/19,11/15/19,9/28/19,Herbivore
1200,41008462,1,CHIPMUNK,21_40_DON_0025.JPG,21_40_DON_0026.JPG,21_40_DON_0027.JPG,21,40,Deciduous,DON,4,9/17/19,11/15/19,9/28/19,Herbivore
1202,41008465,2,CHIPMUNK,21_40_DON_0031.JPG,21_40_DON_0032.JPG,21_40_DON_0033.JPG,21,40,Deciduous,DON,4,9/17/19,11/15/19,9/28/19,Herbivore
1203,41008466,1,CHIPMUNK,21_40_DON_0034.JPG,21_40_DON_0035.JPG,21_40_DON_0036.JPG,21,40,Deciduous,DON,4,9/17/19,11/15/19,9/28/19,Herbivore
1205,41008469,1,CHIPMUNK,21_40_DON_0043.JPG,21_40_DON_0044.JPG,21_40_DON_0045.JPG,21,40,Deciduous,DON,4,9/17/19,11/15/19,9/28/19,Herbivore
1207,41008472,1,CHIPMUNK,21_40_DON_0052.JPG,21_40_DON_0053.JPG,21_40_DON_0054.JPG,21,40,Deciduous,DON,4,9/17/19,11/15/19,9/28/19,Herbivore
1454,39638604,1,CHIPMUNK,23_24_SH_0010.JPG,23_24_SH_0011.JPG,23_24_SH_0012.JPG,23,24,Deciduous,SH,4,9/20/19,12/7/19,12/7/19,Herbivore
1456,39638629,1,CHIPMUNK,23_24_SH_0016.JPG,23_24_SH_0017.JPG,23_24_SH_0018.JPG,23,24,Deciduous,SH,4,9/20/19,12/7/19,12/7/19,Herbivore
1459,39638688,1,CHIPMUNK,23_24_SH_0025.JPG,23_24_SH_0026.JPG,23_24_SH_0027.JPG,23,24,Deciduous,SH,4,9/20/19,12/7/19,12/7/19,Herbivore
1460,39638700,1,CHIPMUNK,23_24_SH_0028.JPG,23_24_SH_0029.JPG,23_24_SH_0030.JPG,23,24,Deciduous,SH,4,9/20/19,12/7/19,12/7/19,Herbivore
1464,39638711,2,CHIPMUNK,23_24_SH_0040.JPG,23_24_SH_0041.JPG,23_24_SH_0042.JPG,23,24,Deciduous,SH,4,9/20/19,12/7/19,12/7/19,Herbivore
1470,39638778,2,CHIPMUNK,23_24_SH_0058.JPG,23_24_SH_0059.JPG,23_24_SH_0060.JPG,23,24,Deciduous,SH,4,9/20/19,12/7/19,12/7/19,Herbivore
1473,39638785,1,CHIPMUNK,23_24_SH_0067.JPG,23_24_SH_0068.JPG,23_24_SH_0069.JPG,23,24,Deciduous,SH,4,9/20/19,12/7/19,12/7/19,Herbivore
1475,39638825,1,CHIPMUNK,23_24_SH_0073.JPG,23_24_SH_0074.JPG,23_24_SH_0075.JPG,23,24,Deciduous,SH,4,9/20/19,12/7/19,12/7/19,Herbivore
1476,39638826,1,CHIPMUNK,23_24_SH_0076.JPG,23_24_SH_0077.JPG,23_24_SH_0078.JPG,23,24,Deciduous,SH,4,9/20/19,12/7/19,12/7/19,Herbivore
1477,39638829,1,CHIPMUNK,23_24_SH_0079.JPG,23_24_SH_0080.JPG,23_24_SH_0081.JPG,23,24,Deciduous,SH,4,9/20/19,12/7/19,12/7/19,Herbivore
1481,39638867,1,CHIPMUNK,23_24_SH_0091.JPG,23_24_SH_0092.JPG,23_24_SH_0093.JPG,23,24,Deciduous,SH,4,9/20/19,12/7/19,12/7/19,Herbivore
1482,39638875,1,CHIPMUNK,23_24_SH_0094.JPG,23_24_SH_0095.JPG,23_24_SH_0096.JPG,23,24,Deciduous,SH,4,9/20/19,12/7/19,12/7/19,Herbivore
1484,39638889,2,CHIPMUNK,23_24_SH_0100.JPG,23_24_SH_0101.JPG,23_24_SH_0102.JPG,23,24,Deciduous,SH,4,9/20/19,12/7/19,12/7/19,Herbivore
1487,39638903,1,CHIPMUNK,23_24_SH_0109.JPG,23_24_SH_0110.JPG,23_24_SH_0111.JPG,23,24,Deciduous,SH,4,9/20/19,12/7/19,12/7/19,Herbivore
1488,39638948,1,CHIPMUNK,23_24_SH_0112.JPG,23_24_SH_0113.JPG,23_24_SH_0114.JPG,23,24,Deciduous,SH,4,9/20/19,12/7/19,12/7/19,Herbivore
1489,39638950,1,CHIPMUNK,23_24_SH_0115.JPG,23_24_SH_0116.JPG,23_24_SH_0117.JPG,23,24,Deciduous,SH,4,9/20/19,12/7/19,12/7/19,Herbivore
1490,39638951,1,CHIPMUNK,23_24_SH_0118.JPG,23_24_SH_0119.JPG,23_24_SH_0120.JPG,23,24,Deciduous,SH,4,9/20/19,12/7/19,12/7/19,Herbivore
1491,39638952,2,CHIPMUNK,23_24_SH_0121.JPG,23_24_SH_0122.JPG,23_24_SH_0123.JPG,23,24,Deciduous,SH,4,9/20/19,12/7/19,12/7/19,Herbivore
1492,39638953,2,CHIPMUNK,23_24_SH_0124.JPG,23_24_SH_0125.JPG,23_24_SH_0126.JPG,23,24,Deciduous,SH,4,9/20/19,12/7/19,12/7/19,Herbivore
1493,39638957,1,CHIPMUNK,23_24_SH_0127.JPG,23_24_SH_0128.JPG,23_24_SH_0129.JPG,23,24,Deciduous,SH,4,9/20/19,12/7/19,12/7/19,Herbivore
1495,39638971,1,CHIPMUNK,23_24_SH_0133.JPG,23_24_SH_0134.JPG,23_24_SH_0135.JPG,23,24,Deciduous,SH,4,9/20/19,12/7/19,12/7/19,Herbivore
1496,39638972,1,CHIPMUNK,23_24_SH_0136.JPG,23_24_SH_0137.JPG,23_24_SH_0138.JPG,23,24,Deciduous,SH,4,9/20/19,12/7/19,12/7/19,Herbivore
1497,39638974,1,CHIPMUNK,23_24_SH_0139.JPG,23_24_SH_0140.JPG,23_24_SH_0141.JPG,23,24,Deciduous,SH,4,9/20/19,12/7/19,12/7/19,Herbivore
1498,39639033,1,CHIPMUNK,23_24_SH_0142.JPG,23_24_SH_0143.JPG,23_24_SH_0144.JPG,23,24,Deciduous,SH,4,9/20/19,12/7/19,12/7/19,Herbivore
1499,39639056,1,CHIPMUNK,23_24_SH_0145.JPG,23_24_SH_0146.JPG,23_24_SH_0147.JPG,23,24,Deciduous,SH,4,9/20/19,12/7/19,12/7/19,Herbivore
1502,39639064,1,CHIPMUNK,23_24_SH_0154.JPG,23_24_SH_0155.JPG,23_24_SH_0156.JPG,23,24,Deciduous,SH,4,9/20/19,12/7/19,12/7/19,Herbivore
1503,39639117,1,CHIPMUNK,23_24_SH_0157.JPG,23_24_SH_0158.JPG,23_24_SH_0159.JPG,23,24,Deciduous,SH,4,9/20/19,12/7/19,12/7/19,Herbivore
1505,39639121,1,CHIPMUNK,23_24_SH_0163.JPG,23_24_SH_0164.JPG,23_24_SH_0165.JPG,23,24,Deciduous,SH,4,9/20/19,12/7/19,12/7/19,Herbivore
1507,39639133,1,CHIPMUNK,23_24_SH_0169.JPG,23_24_SH_0170.JPG,23_24_SH_0171.JPG,23,24,Deciduous,SH,4,9/20/19,12/7/19,12/7/19,Herbivore
1508,39639137,2,CHIPMUNK,23_24_SH_0172.JPG,23_24_SH_0173.JPG,23_24_SH_0174.JPG,23,24,Deciduous,SH,4,9/20/19,12/7/19,12/7/19,Herbivore
1509,39639200,1,CHIPMUNK,23_24_SH_0175.JPG,23_24_SH_0176.JPG,23_24_SH_0177.JPG,23,24,Deciduous,SH,4,9/20/19,12/7/19,12/7/19,Herbivore
1510,39639211,1,CHIPMUNK,23_24_SH_0178.JPG,23_24_SH_0179.JPG,23_24_SH_0180.JPG,23,24,Deciduous,SH,4,9/20/19,12/7/19,12/7/19,Herbivore
1511,39639233,1,CHIPMUNK,23_24_SH_0181.JPG,23_24_SH_0182.JPG,23_24_SH_0183.JPG,23,24,Deciduous,SH,4,9/20/19,12/7/19,12/7/19,Herbivore
1512,39639238,1,CHIPMUNK,23_24_SH_0187.JPG,23_24_SH_0188.JPG,23_24_SH_0189.JPG,23,24,Deciduous,SH,4,9/20/19,12/7/19,12/7/19,Herbivore
1513,39639249,1,CHIPMUNK,23_24_SH_0193.JPG,23_24_SH_0194.JPG,23_24_SH_0195.JPG,23,24,Deciduous,SH,4,9/20/19,12/7/19,12/7/19,Herbivore
1515,39640022,1,CHIPMUNK,23_24_SH_0199.JPG,23_24_SH_0200.JPG,23_24_SH_0201.JPG,23,24,Deciduous,SH,4,9/20/19,12/7/19,12/7/19,Herbivore
1516,39640033,1,CHIPMUNK,23_24_SH_0202.JPG,23_24_SH_0203.JPG,23_24_SH_0204.JPG,23,24,Deciduous,SH,4,9/20/19,12/7/19,12/7/19,Herbivore
1517,39640035,1,CHIPMUNK,23_24_SH_0205.JPG,23_24_SH_0206.JPG,23_24_SH_0207.JPG,23,24,Deciduous,SH,4,9/20/19,12/7/19,12/7/19,Herbivore
1518,39640043,1,CHIPMUNK,23_24_SH_0208.JPG,23_24_SH_0209.JPG,23_24_SH_0210.JPG,23,24,Deciduous,SH,4,9/20/19,12/7/19,12/7/19,Herbivore
1519,39640055,1,CHIPMUNK,23_24_SH_0211.JPG,23_24_SH_0212.JPG,23_24_SH_0213.JPG,23,24,Deciduous,SH,4,9/20/19,12/7/19,12/7/19,Herbivore
1528,37818711,1,CHIPMUNK,23_32_SH_0019.JPG,23_32_SH_0020.JPG,23_32_SH_0021.JPG,23,32,Deciduous,SH,3,5/10/19,8/31/19,8/31/19,Herbivore
1532,37820327,2,CHIPMUNK,23_32_SH_0043.JPG,23_32_SH_0044.JPG,23_32_SH_0045.JPG,23,32,Deciduous,SH,3,5/10/19,8/31/19,8/31/19,Herbivore
1533,37820433,1,CHIPMUNK,23_32_SH_0046.JPG,23_32_SH_0047.JPG,23_32_SH_0048.JPG,23,32,Deciduous,SH,3,5/10/19,8/31/19,8/31/19,Herbivore
1546,37821350,1,CHIPMUNK,23_32_SH_0124.JPG,23_32_SH_0125.JPG,23_32_SH_0126.JPG,23,32,Deciduous,SH,3,5/10/19,8/31/19,8/31/19,Herbivore
1553,37822108,1,CHIPMUNK,23_32_SH_0154.JPG,23_32_SH_0155.JPG,23_32_SH_0156.JPG,23,32,Deciduous,SH,3,5/10/19,8/31/19,8/31/19,Herbivore
1554,37822346,1,CHIPMUNK,23_32_SH_0163.JPG,23_32_SH_0164.JPG,23_32_SH_0165.JPG,23,32,Deciduous,SH,3,5/10/19,8/31/19,8/31/19,Herbivore
1725,39638621,1,CHIPMUNK,28_01_SH_0031.JPG,28_01_SH_0032.JPG,28_01_SH_0033.JPG,28,1,Deciduous,SH,4,9/20/19,12/7/19,12/7/19,Herbivore
1756,39638870,1,CHIPMUNK,28_01_SH_0130.JPG,28_01_SH_0131.JPG,28_01_SH_0132.JPG,28,1,Deciduous,SH,4,9/20/19,12/7/19,12/7/19,Herbivore
1761,39638901,1,CHIPMUNK,28_01_SH_0145.JPG,28_01_SH_0146.JPG,28_01_SH_0147.JPG,28,1,Deciduous,SH,4,9/20/19,12/7/19,12/7/19,Herbivore
1763,39638910,1,CHIPMUNK,28_01_SH_0151.JPG,28_01_SH_0152.JPG,28_01_SH_0153.JPG,28,1,Deciduous,SH,4,9/20/19,12/7/19,12/7/19,Herbivore
1765,39638959,1,CHIPMUNK,28_01_SH_0166.JPG,28_01_SH_0167.JPG,28_01_SH_0168.JPG,28,1,Deciduous,SH,4,9/20/19,12/7/19,12/7/19,Herbivore
1772,39639001,1,CHIPMUNK,28_01_SH_0187.JPG,28_01_SH_0188.JPG,28_01_SH_0189.JPG,28,1,Deciduous,SH,4,9/20/19,12/7/19,12/7/19,Herbivore
1774,39639004,1,CHIPMUNK,28_01_SH_0196.JPG,28_01_SH_0197.JPG,28_01_SH_0198.JPG,28,1,Deciduous,SH,4,9/20/19,12/7/19,12/7/19,Herbivore
1778,39639132,1,CHIPMUNK,28_01_SH_0208.JPG,28_01_SH_0209.JPG,28_01_SH_0210.JPG,28,1,Deciduous,SH,4,9/20/19,12/7/19,12/7/19,Herbivore
1826,39639579,1,CHIPMUNK,28_01_SH_0367.JPG,28_01_SH_0368.JPG,28_01_SH_0369.JPG,28,1,Deciduous,SH,4,9/20/19,12/7/19,12/7/19,Herbivore
1827,39639580,1,CHIPMUNK,28_01_SH_0370.JPG,28_01_SH_0371.JPG,28_01_SH_0372.JPG,28,1,Deciduous,SH,4,9/20/19,12/7/19,12/7/19,Herbivore
1828,39639581,1,CHIPMUNK,28_01_SH_0373.JPG,28_01_SH_0374.JPG,28_01_SH_0375.JPG,28,1,Deciduous,SH,4,9/20/19,12/7/19,12/7/19,Herbivore
1832,39639677,1,CHIPMUNK,28_01_SH_0391.JPG,28_01_SH_0392.JPG,28_01_SH_0393.JPG,28,1,Deciduous,SH,4,9/20/19,12/7/19,12/7/19,Herbivore
1836,39639718,2,CHIPMUNK,28_01_SH_0406.JPG,28_01_SH_0407.JPG,28_01_SH_0408.JPG,28,1,Deciduous,SH,4,9/20/19,12/7/19,12/7/19,Herbivore
1841,39639923,2,CHIPMUNK,28_01_SH_0424.JPG,28_01_SH_0425.JPG,28_01_SH_0426.JPG,28,1,Deciduous,SH,4,9/20/19,12/7/19,12/7/19,Herbivore
2435,37818924,1,CHIPMUNK,32_26_WF_0013.JPG,32_26_WF_0014.JPG,32_26_WF_0015.JPG,32,26,Pine,WF,3,5/15/19,9/3/19,8/9/19,Herbivore
2448,37821718,1,CHIPMUNK,32_26_WF_0253.JPG,32_26_WF_0254.JPG,32_26_WF_0255.JPG,32,26,Pine,WF,3,5/15/19,9/3/19,8/9/19,Herbivore
2523,37819053,1,CHIPMUNK,33_23_DON_0040.JPG,33_23_DON_0041.JPG,33_23_DON_0042.JPG,33,23,Deciduous,DON,3,5/16/19,9/7/19,8/20/19,Herbivore
2529,37820414,1,CHIPMUNK,33_23_DON_0154.JPG,33_23_DON_0155.JPG,33_23_DON_0156.JPG,33,23,Deciduous,DON,3,5/16/19,9/7/19,8/20/19,Herbivore
2542,37821037,1,CHIPMUNK,33_23_DON_0247.JPG,33_23_DON_0248.JPG,33_23_DON_0249.JPG,33,23,Deciduous,DON,3,5/16/19,9/7/19,8/20/19,Herbivore
2544,37821191,1,CHIPMUNK,33_23_DON_0262.JPG,33_23_DON_0263.JPG,33_23_DON_0264.JPG,33,23,Deciduous,DON,3,5/16/19,9/7/19,8/20/19,Herbivore
2561,37821420,1,CHIPMUNK,33_23_DON_0331.JPG,33_23_DON_0332.JPG,33_23_DON_0333.JPG,33,23,Deciduous,DON,3,5/16/19,9/7/19,8/20/19,Herbivore
2562,37821421,1,CHIPMUNK,33_23_DON_0334.JPG,33_23_DON_0335.JPG,33_23_DON_0336.JPG,33,23,Deciduous,DON,3,5/16/19,9/7/19,8/20/19,Herbivore
2564,37821702,1,CHIPMUNK,33_23_DON_0346.JPG,33_23_DON_0347.JPG,33_23_DON_0348.JPG,33,23,Deciduous,DON,3,5/16/19,9/7/19,8/20/19,Herbivore
2566,37821766,2,CHIPMUNK,33_23_DON_0361.JPG,33_23_DON_0362.JPG,33_23_DON_0363.JPG,33,23,Deciduous,DON,3,5/16/19,9/7/19,8/20/19,Herbivore
2568,37821784,1,CHIPMUNK,33_23_DON_0367.JPG,33_23_DON_0368.JPG,33_23_DON_0369.JPG,33,23,Deciduous,DON,3,5/16/19,9/7/19,8/20/19,Herbivore
2569,37821786,1,CHIPMUNK,33_23_DON_0370.JPG,33_23_DON_0371.JPG,33_23_DON_0372.JPG,33,23,Deciduous,DON,3,5/16/19,9/7/19,8/20/19,Herbivore
2570,37821872,1,CHIPMUNK,33_23_DON_0376.JPG,33_23_DON_0377.JPG,33_23_DON_0378.JPG,33,23,Deciduous,DON,3,5/16/19,9/7/19,8/20/19,Herbivore
2571,37821877,1,CHIPMUNK,33_23_DON_0379.JPG,33_23_DON_0380.JPG,33_23_DON_0381.JPG,33,23,Deciduous,DON,3,5/16/19,9/7/19,8/20/19,Herbivore
2572,37821902,1,CHIPMUNK,33_23_DON_0382.JPG,33_23_DON_0383.JPG,33_23_DON_0384.JPG,33,23,Deciduous,DON,3,5/16/19,9/7/19,8/20/19,Herbivore
2574,37821935,1,CHIPMUNK,33_23_DON_0391.JPG,33_23_DON_0392.JPG,NA,33,23,Deciduous,DON,3,5/16/19,9/7/19,8/20/19,Herbivore
2575,37821937,1,CHIPMUNK,33_23_DON_0394.JPG,33_23_DON_0395.JPG,33_23_DON_0396.JPG,33,23,Deciduous,DON,3,5/16/19,9/7/19,8/20/19,Herbivore
2576,37821940,1,CHIPMUNK,33_23_DON_0397.JPG,33_23_DON_0398.JPG,33_23_DON_0399.JPG,33,23,Deciduous,DON,3,5/16/19,9/7/19,8/20/19,Herbivore
2577,37821958,1,CHIPMUNK,33_23_DON_0406.JPG,33_23_DON_0407.JPG,33_23_DON_0408.JPG,33,23,Deciduous,DON,3,5/16/19,9/7/19,8/20/19,Herbivore
2578,37821962,1,CHIPMUNK,33_23_DON_0409.JPG,33_23_DON_0410.JPG,33_23_DON_0411.JPG,33,23,Deciduous,DON,3,5/16/19,9/7/19,8/20/19,Herbivore
2579,37821965,1,CHIPMUNK,33_23_DON_0412.JPG,33_23_DON_0413.JPG,33_23_DON_0414.JPG,33,23,Deciduous,DON,3,5/16/19,9/7/19,8/20/19,Herbivore
2580,37821970,1,CHIPMUNK,33_23_DON_0418.JPG,33_23_DON_0419.JPG,33_23_DON_0420.JPG,33,23,Deciduous,DON,3,5/16/19,9/7/19,8/20/19,Herbivore
2581,37821972,1,CHIPMUNK,33_23_DON_0421.JPG,33_23_DON_0422.JPG,33_23_DON_0423.JPG,33,23,Deciduous,DON,3,5/16/19,9/7/19,8/20/19,Herbivore
2582,37821975,1,CHIPMUNK,33_23_DON_0424.JPG,33_23_DON_0425.JPG,33_23_DON_0426.JPG,33,23,Deciduous,DON,3,5/16/19,9/7/19,8/20/19,Herbivore
2583,37821978,1,CHIPMUNK,33_23_DON_0427.JPG,33_23_DON_0428.JPG,33_23_DON_0429.JPG,33,23,Deciduous,DON,3,5/16/19,9/7/19,8/20/19,Herbivore
2600,37822299,1,CHIPMUNK,33_23_DON_0529.JPG,33_23_DON_0530.JPG,33_23_DON_0531.JPG,33,23,Deciduous,DON,3,5/16/19,9/7/19,8/20/19,Herbivore
2602,37822310,1,CHIPMUNK,33_23_DON_0535.JPG,33_23_DON_0536.JPG,33_23_DON_0537.JPG,33,23,Deciduous,DON,3,5/16/19,9/7/19,8/20/19,Herbivore
2617,37822629,1,CHIPMUNK,33_23_DON_0625.JPG,33_23_DON_0626.JPG,33_23_DON_0627.JPG,33,23,Deciduous,DON,3,5/16/19,9/7/19,8/20/19,Herbivore
2618,37822649,1,CHIPMUNK,33_23_DON_0628.JPG,33_23_DON_0629.JPG,33_23_DON_0630.JPG,33,23,Deciduous,DON,3,5/16/19,9/7/19,8/20/19,Herbivore
2620,37822981,1,CHIPMUNK,33_23_DON_0640.JPG,33_23_DON_0641.JPG,33_23_DON_0642.JPG,33,23,Deciduous,DON,3,5/16/19,9/7/19,8/20/19,Herbivore
2622,37823034,1,CHIPMUNK,33_23_DON_0649.JPG,33_23_DON_0650.JPG,33_23_DON_0651.JPG,33,23,Deciduous,DON,3,5/16/19,9/7/19,8/20/19,Herbivore
2680,39906333,1,CHIPMUNK,34_21_WF_0064.JPG,34_21_WF_0065.JPG,34_21_WF_0066.JPG,34,21,Pine,WF,4,9/29/19,1/26/20,12/14/19,Herbivore
2804,39906308,1,CHIPMUNK,36_32_WF_0019.JPG,36_32_WF_0020.JPG,36_32_WF_0021.JPG,36,32,Pine,WF,4,9/29/19,1/26/20,12/18/19,Herbivore
2805,39906311,1,CHIPMUNK,36_32_WF_0022.JPG,36_32_WF_0023.JPG,36_32_WF_0024.JPG,36,32,Pine,WF,4,9/29/19,1/26/20,12/18/19,Herbivore
2806,39906312,2,CHIPMUNK,36_32_WF_0025.JPG,36_32_WF_0026.JPG,36_32_WF_0027.JPG,36,32,Pine,WF,4,9/29/19,1/26/20,12/18/19,Herbivore
2808,39906316,1,CHIPMUNK,36_32_WF_0031.JPG,36_32_WF_0032.JPG,36_32_WF_0033.JPG,36,32,Pine,WF,4,9/29/19,1/26/20,12/18/19,Herbivore
2830,39906351,1,CHIPMUNK,36_32_WF_0124.JPG,36_32_WF_0125.JPG,36_32_WF_0126.JPG,36,32,Pine,WF,4,9/29/19,1/26/20,12/18/19,Herbivore
2831,39906352,1,CHIPMUNK,36_32_WF_0127.JPG,36_32_WF_0128.JPG,36_32_WF_0129.JPG,36,32,Pine,WF,4,9/29/19,1/26/20,12/18/19,Herbivore
2833,39906354,2,CHIPMUNK,36_32_WF_0133.JPG,36_32_WF_0134.JPG,36_32_WF_0135.JPG,36,32,Pine,WF,4,9/29/19,1/26/20,12/18/19,Herbivore
2837,39906359,2,CHIPMUNK,36_32_WF_0145.JPG,36_32_WF_0146.JPG,36_32_WF_0147.JPG,36,32,Pine,WF,4,9/29/19,1/26/20,12/18/19,Herbivore
2839,39906361,1,CHIPMUNK,36_32_WF_0151.JPG,36_32_WF_0152.JPG,36_32_WF_0153.JPG,36,32,Pine,WF,4,9/29/19,1/26/20,12/18/19,Herbivore
2853,39906386,1,CHIPMUNK,36_32_WF_0193.JPG,36_32_WF_0194.JPG,36_32_WF_0195.JPG,36,32,Pine,WF,4,9/29/19,1/26/20,12/18/19,Herbivore
2855,39906389,2,CHIPMUNK,36_32_WF_0202.JPG,36_32_WF_0203.JPG,36_32_WF_0204.JPG,36,32,Pine,WF,4,9/29/19,1/26/20,12/18/19,Herbivore
2867,39906403,2,CHIPMUNK,36_32_WF_0241.JPG,36_32_WF_0242.JPG,36_32_WF_0243.JPG,36,32,Pine,WF,4,9/29/19,1/26/20,12/18/19,Herbivore
2871,39906410,1,CHIPMUNK,36_32_WF_0256.JPG,36_32_WF_0257.JPG,36_32_WF_0258.JPG,36,32,Pine,WF,4,9/29/19,1/26/20,12/18/19,Herbivore
2872,39906411,2,CHIPMUNK,36_32_WF_0259.JPG,36_32_WF_0260.JPG,36_32_WF_0261.JPG,36,32,Pine,WF,4,9/29/19,1/26/20,12/18/19,Herbivore
2873,39906412,1,CHIPMUNK,36_32_WF_0262.JPG,36_32_WF_0263.JPG,36_32_WF_0264.JPG,36,32,Pine,WF,4,9/29/19,1/26/20,12/18/19,Herbivore
2874,39906413,2,CHIPMUNK,36_32_WF_0265.JPG,36_32_WF_0266.JPG,36_32_WF_0267.JPG,36,32,Pine,WF,4,9/29/19,1/26/20,12/18/19,Herbivore
2879,39906423,1,CHIPMUNK,36_32_WF_0280.JPG,36_32_WF_0281.JPG,36_32_WF_0282.JPG,36,32,Pine,WF,4,9/29/19,1/26/20,12/18/19,Herbivore
2886,39906430,2,CHIPMUNK,36_32_WF_0301.JPG,36_32_WF_0302.JPG,36_32_WF_0303.JPG,36,32,Pine,WF,4,9/29/19,1/26/20,12/18/19,Herbivore
2887,39906431,2,CHIPMUNK,36_32_WF_0304.JPG,36_32_WF_0305.JPG,36_32_WF_0306.JPG,36,32,Pine,WF,4,9/29/19,1/26/20,12/18/19,Herbivore
2899,39906452,1,CHIPMUNK,36_32_WF_0343.JPG,36_32_WF_0344.JPG,36_32_WF_0345.JPG,36,32,Pine,WF,4,9/29/19,1/26/20,12/18/19,Herbivore
2940,39638730,1,CHIPMUNK,37_31_DEG_0019.JPG,37_31_DEG_0020.JPG,37_31_DEG_0021.JPG,37,31,Pine,DEG,4,9/27/19,11/17/19,11/17/19,Herbivore
2941,39638731,1,CHIPMUNK,37_31_DEG_0022.JPG,37_31_DEG_0023.JPG,37_31_DEG_0024.JPG,37,31,Pine,DEG,4,9/27/19,11/17/19,11/17/19,Herbivore
2942,39638735,1,CHIPMUNK,37_31_DEG_0025.JPG,37_31_DEG_0026.JPG,37_31_DEG_0027.JPG,37,31,Pine,DEG,4,9/27/19,11/17/19,11/17/19,Herbivore
2951,39638918,1,CHIPMUNK,37_31_DEG_0058.JPG,37_31_DEG_0059.JPG,37_31_DEG_0060.JPG,37,31,Pine,DEG,4,9/27/19,11/17/19,11/17/19,Herbivore
2953,39639005,1,CHIPMUNK,37_31_DEG_0067.JPG,37_31_DEG_0068.JPG,37_31_DEG_0069.JPG,37,31,Pine,DEG,4,9/27/19,11/17/19,11/17/19,Herbivore
2954,39639034,2,CHIPMUNK,37_31_DEG_0073.JPG,37_31_DEG_0074.JPG,37_31_DEG_0075.JPG,37,31,Pine,DEG,4,9/27/19,11/17/19,11/17/19,Herbivore
2955,39639035,1,CHIPMUNK,37_31_DEG_0076.JPG,37_31_DEG_0077.JPG,37_31_DEG_0078.JPG,37,31,Pine,DEG,4,9/27/19,11/17/19,11/17/19,Herbivore
2958,39639073,2,CHIPMUNK,37_31_DEG_0085.JPG,37_31_DEG_0086.JPG,37_31_DEG_0087.JPG,37,31,Pine,DEG,4,9/27/19,11/17/19,11/17/19,Herbivore
2962,39639150,2,CHIPMUNK,37_31_DEG_0100.JPG,37_31_DEG_0101.JPG,37_31_DEG_0102.JPG,37,31,Pine,DEG,4,9/27/19,11/17/19,11/17/19,Herbivore
2964,39639162,2,CHIPMUNK,37_31_DEG_0106.JPG,37_31_DEG_0107.JPG,37_31_DEG_0108.JPG,37,31,Pine,DEG,4,9/27/19,11/17/19,11/17/19,Herbivore
2968,39639318,1,CHIPMUNK,37_31_DEG_0127.JPG,37_31_DEG_0128.JPG,37_31_DEG_0129.JPG,37,31,Pine,DEG,4,9/27/19,11/17/19,11/17/19,Herbivore
2969,39639325,2,CHIPMUNK,37_31_DEG_0130.JPG,37_31_DEG_0131.JPG,37_31_DEG_0132.JPG,37,31,Pine,DEG,4,9/27/19,11/17/19,11/17/19,Herbivore
2971,39639414,1,CHIPMUNK,37_31_DEG_0142.JPG,37_31_DEG_0143.JPG,37_31_DEG_0144.JPG,37,31,Pine,DEG,4,9/27/19,11/17/19,11/17/19,Herbivore
2974,39639479,1,CHIPMUNK,37_31_DEG_0151.JPG,37_31_DEG_0152.JPG,37_31_DEG_0153.JPG,37,31,Pine,DEG,4,9/27/19,11/17/19,11/17/19,Herbivore
2975,39639483,2,CHIPMUNK,37_31_DEG_0154.JPG,37_31_DEG_0155.JPG,37_31_DEG_0156.JPG,37,31,Pine,DEG,4,9/27/19,11/17/19,11/17/19,Herbivore
2978,39639500,1,CHIPMUNK,37_31_DEG_0163.JPG,37_31_DEG_0164.JPG,37_31_DEG_0165.JPG,37,31,Pine,DEG,4,9/27/19,11/17/19,11/17/19,Herbivore
4,39638777,1,COYOTE,01_23_DEG_000010.JPG,01_23_DEG_000011.JPG,01_23_DEG_000012.JPG,1,23,Pine,DEG,4,9/27/19,11/17/19,11/17/19,Mesocarnivore
32,39639520,1,COYOTE,01_23_DEG_000106.JPG,01_23_DEG_000107.JPG,01_23_DEG_000108.JPG,1,23,Pine,DEG,4,9/27/19,11/17/19,11/17/19,Mesocarnivore
41,39639890,1,COYOTE,01_23_DEG_000139.JPG,01_23_DEG_000140.JPG,01_23_DEG_000141.JPG,1,23,Pine,DEG,4,9/27/19,11/17/19,11/17/19,Mesocarnivore
82,37156560,1,COYOTE,02_42_WHIP_000097.JPG,02_42_WHIP_000098.JPG,02_42_WHIP_000099.JPG,2,42,Pine,WHIP,2,1/24/19,5/13/19,4/22/19,Mesocarnivore
124,39639315,1,COYOTE,03_39_WF_000010.JPG,03_39_WF_000011.JPG,03_39_WF_000012.JPG,3,39,Pine,WF,4,9/29/19,12/6/19,12/6/19,Mesocarnivore
128,39639884,1,COYOTE,03_39_WF_000025.JPG,03_39_WF_000026.JPG,03_39_WF_000027.JPG,3,39,Pine,WF,4,9/29/19,12/6/19,12/6/19,Mesocarnivore
162,31428301,1,COYOTE,04_26_WF_000031.JPG,04_26_WF_000032.JPG,04_26_WF_000033.JPG,4,26,Pine,WF,1,11/17/18,1/31/19,1/10/19,Mesocarnivore
165,31428304,1,COYOTE,04_26_WF_000040.JPG,04_26_WF_000041.JPG,04_26_WF_000042.JPG,4,26,Pine,WF,1,11/17/18,1/31/19,1/10/19,Mesocarnivore
167,31428306,1,COYOTE,04_26_WF_000046.JPG,04_26_WF_000047.JPG,04_26_WF_000048.JPG,4,26,Pine,WF,1,11/17/18,1/31/19,1/10/19,Mesocarnivore
234,37820314,1,COYOTE,06_41_DON_05240028.JPG,06_41_DON_05240029.JPG,06_41_DON_05240030.JPG,6,41,Deciduous,DON,3,5/16/19,9/7/19,9/6/19,Mesocarnivore
249,37821202,1,COYOTE,06_41_DON_06160100.JPG,06_41_DON_06160101.JPG,06_41_DON_06160102.JPG,6,41,Deciduous,DON,3,5/16/19,9/7/19,9/6/19,Mesocarnivore
292,39638787,1,COYOTE,07_42_WHIP_000052.JPG,07_42_WHIP_000053.JPG,07_42_WHIP_000054.JPG,7,42,Pine,WHIP,4,9/27/19,11/12/19,11/11/19,Mesocarnivore
308,39638960,1,COYOTE,07_42_WHIP_000106.JPG,07_42_WHIP_000107.JPG,07_42_WHIP_000108.JPG,7,42,Pine,WHIP,4,9/27/19,11/12/19,11/11/19,Mesocarnivore
535,31428437,1,COYOTE,14_22_DON_000085.JPG,14_22_DON_000086.JPG,14_22_DON_000087.JPG,14,22,Deciduous,DON,1,12/13/18,2/25/19,2/25/19,Mesocarnivore
720,39639800,1,COYOTE,15_06_SH_000517.JPG,15_06_SH_000518.JPG,15_06_SH_000519.JPG,15,6,Deciduous,SH,4,9/20/19,12/7/19,12/7/19,Mesocarnivore
764,39640082,1,COYOTE,15_06_SH_000658.JPG,15_06_SH_000660.JPG,15_06_SH_000659.JPG,15,6,Deciduous,SH,4,9/20/19,12/7/19,12/7/19,Mesocarnivore
775,31428460,2,COYOTE,15_14_DEG_000031.JPG,15_14_DEG_000032.JPG,15_14_DEG_000033.JPG,15,14,Pine,DEG,1,11/26/18,2/7/19,2/7/19,Mesocarnivore
799,31428485,1,COYOTE,15_14_DEG_000106.JPG,15_14_DEG_000107.JPG,NA,15,14,Pine,DEG,1,11/26/18,2/7/19,2/7/19,Mesocarnivore
953,37161943,1,COYOTE,17_08_BC_000103.JPG,17_08_BC_000104.JPG,17_08_BC_000105.JPG,17,8,Deciduous,BC,2,3/4/19,5/11/19,5/11/19,Mesocarnivore
1109,31428638,1,COYOTE,18_16_WHIP_000055.JPG,18_16_WHIP_000056.JPG,18_16_WHIP_000057.JPG,18,16,Pine,WHIP,1,12/18/18,1/24/19,1/24/19,Mesocarnivore
1137,37162021,1,COYOTE,18_40_WHIP_000097.JPG,18_40_WHIP_000098.JPG,NA,18,40,Pine,WHIP,2,1/24/19,5/13/19,4/22/19,Mesocarnivore
1146,37162032,1,COYOTE,18_40_WHIP_000130.JPG,18_40_WHIP_000131.JPG,18_40_WHIP_000132.JPG,18,40,Pine,WHIP,2,1/24/19,5/13/19,4/22/19,Mesocarnivore
1148,37162034,1,COYOTE,18_40_WHIP_000136.JPG,18_40_WHIP_000137.JPG,18_40_WHIP_000138.JPG,18,40,Pine,WHIP,2,1/24/19,5/13/19,4/22/19,Mesocarnivore
1150,37162039,1,COYOTE,18_40_WHIP_000151.JPG,18_40_WHIP_000152.JPG,18_40_WHIP_000153.JPG,18,40,Pine,WHIP,2,1/24/19,5/13/19,4/22/19,Mesocarnivore
1151,37162040,2,COYOTE,18_40_WHIP_000154.JPG,18_40_WHIP_000155.JPG,18_40_WHIP_000156.JPG,18,40,Pine,WHIP,2,1/24/19,5/13/19,4/22/19,Mesocarnivore
1164,37162056,1,COYOTE,18_40_WHIP_000202.JPG,18_40_WHIP_000203.JPG,18_40_WHIP_000204.JPG,18,40,Pine,WHIP,2,1/24/19,5/13/19,4/22/19,Mesocarnivore
1209,31428703,2,COYOTE,22_18_WF_0001.JPG,22_18_WF_0002.JPG,22_18_WF_0003.JPG,22,18,Pine,WF,1,11/17/18,1/31/19,1/28/19,Mesocarnivore
1229,31428723,1,COYOTE,22_18_WF_0064.JPG,22_18_WF_0065.JPG,22_18_WF_0066.JPG,22,18,Pine,WF,1,11/17/18,1/31/19,1/28/19,Mesocarnivore
1236,31428730,1,COYOTE,22_18_WF_0085.JPG,22_18_WF_0086.JPG,22_18_WF_0087.JPG,22,18,Pine,WF,1,11/17/18,1/31/19,1/28/19,Mesocarnivore
1248,31428743,2,COYOTE,22_18_WF_0124.JPG,22_18_WF_0125.JPG,22_18_WF_0126.JPG,22,18,Pine,WF,1,11/17/18,1/31/19,1/28/19,Mesocarnivore
1348,37162149,1,COYOTE,22_31_WF_0079.JPG,22_31_WF_0080.JPG,22_31_WF_0081.JPG,22,31,Pine,WF,2,1/28/19,5/15/19,4/30/19,Mesocarnivore
1350,37162152,1,COYOTE,22_31_WF_0088.JPG,22_31_WF_0089.JPG,22_31_WF_0090.JPG,22,31,Pine,WF,2,1/28/19,5/15/19,4/30/19,Mesocarnivore
1363,37162167,1,COYOTE,22_31_WF_0133.JPG,22_31_WF_0134.JPG,22_31_WF_0135.JPG,22,31,Pine,WF,2,1/28/19,5/15/19,4/30/19,Mesocarnivore
1371,37162175,1,COYOTE,22_31_WF_0163.JPG,22_31_WF_0164.JPG,22_31_WF_0165.JPG,22,31,Pine,WF,2,1/28/19,5/15/19,4/30/19,Mesocarnivore
1373,37162177,1,COYOTE,22_31_WF_0169.JPG,22_31_WF_0170.JPG,22_31_WF_0171.JPG,22,31,Pine,WF,2,1/28/19,5/15/19,4/30/19,Mesocarnivore
1389,37162195,1,COYOTE,22_31_WF_0223.JPG,22_31_WF_0224.JPG,22_31_WF_0225.JPG,22,31,Pine,WF,2,1/28/19,5/15/19,4/30/19,Mesocarnivore
1393,37162199,1,COYOTE,22_31_WF_0235.JPG,22_31_WF_0236.JPG,22_31_WF_0237.JPG,22,31,Pine,WF,2,1/28/19,5/15/19,4/30/19,Mesocarnivore
1400,37162208,1,COYOTE,22_31_WF_0268.JPG,22_31_WF_0269.JPG,22_31_WF_0270.JPG,22,31,Pine,WF,2,1/28/19,5/15/19,4/30/19,Mesocarnivore
1413,31428838,1,COYOTE,23_03_SH_0040.JPG,23_03_SH_0041.JPG,23_03_SH_0042.JPG,23,3,Deciduous,SH,1,11/14/18,2/11/19,2/9/19,Mesocarnivore
1523,37818649,1,COYOTE,23_32_SH_0004.JPG,23_32_SH_0005.JPG,23_32_SH_0006.JPG,23,32,Deciduous,SH,3,5/10/19,8/31/19,8/31/19,Mesocarnivore
1543,37821211,1,COYOTE,23_32_SH_0115.JPG,23_32_SH_0116.JPG,23_32_SH_0117.JPG,23,32,Deciduous,SH,3,5/10/19,8/31/19,8/31/19,Mesocarnivore
1544,37821284,1,COYOTE,23_32_SH_0118.JPG,23_32_SH_0119.JPG,23_32_SH_0120.JPG,23,32,Deciduous,SH,3,5/10/19,8/31/19,8/31/19,Mesocarnivore
1545,37821286,1,COYOTE,23_32_SH_0121.JPG,23_32_SH_0122.JPG,23_32_SH_0123.JPG,23,32,Deciduous,SH,3,5/10/19,8/31/19,8/31/19,Mesocarnivore
1564,37823197,2,COYOTE,23_32_SH_0202.JPG,23_32_SH_0203.JPG,23_32_SH_0204.JPG,23,32,Deciduous,SH,3,5/10/19,8/31/19,8/31/19,Mesocarnivore
1652,37162369,1,COYOTE,25_06_SH_0007.JPG,25_06_SH_0008.JPG,25_06_SH_0009.JPG,25,6,Deciduous,SH,2,2/11/19,5/10/19,5/5/19,Mesocarnivore
1669,31428908,1,COYOTE,25_09_SH_0042.JPG,25_09_SH_0043.JPG,25_09_SH_0044.JPG,25,9,Deciduous,SH,1,11/14/18,2/11/19,1/16/19,Mesocarnivore
1931,37162395,1,COYOTE,28_38_DEG_0022.JPG,28_38_DEG_0023.JPG,28_38_DEG_0024.JPG,28,38,Pine,DEG,2,2/7/19,5/13/19,4/18/19,Mesocarnivore
1936,37162409,1,COYOTE,28_38_DEG_0082.JPG,28_38_DEG_0083.JPG,28_38_DEG_0084.JPG,28,38,Pine,DEG,2,2/7/19,5/13/19,4/18/19,Mesocarnivore
1937,37162412,1,COYOTE,28_38_DEG_0103.JPG,28_38_DEG_0104.JPG,28_38_DEG_0105.JPG,28,38,Pine,DEG,2,2/7/19,5/13/19,4/18/19,Mesocarnivore
1955,37162440,1,COYOTE,29_12_DEG_0049.JPG,29_12_DEG_0050.JPG,29_12_DEG_0051.JPG,29,12,Pine,DEG,2,2/7/19,5/13/19,2/27/19,Mesocarnivore
1960,37162445,2,COYOTE,29_12_DEG_0064.JPG,29_12_DEG_0065.JPG,29_12_DEG_0066.JPG,29,12,Pine,DEG,2,2/7/19,5/13/19,2/27/19,Mesocarnivore
2145,37162457,1,COYOTE,30_22_BC_0034.JPG,30_22_BC_0035.JPG,30_22_BC_0036.JPG,30,22,Deciduous,BC,2,3/4/19,5/11/19,5/11/19,Mesocarnivore
2146,37162458,2,COYOTE,30_22_BC_0037.JPG,30_22_BC_0038.JPG,30_22_BC_0039.JPG,30,22,Deciduous,BC,2,3/4/19,5/11/19,5/11/19,Mesocarnivore
2217,37820316,1,COYOTE,31_03_WHIP_0193.JPG,31_03_WHIP_0194.JPG,31_03_WHIP_0195.JPG,31,3,Pine,WHIP,3,5/13/19,9/4/19,6/9/19,Mesocarnivore
2246,39638745,1,COYOTE,31_15_WHIP_0037.JPG,31_15_WHIP_0038.JPG,31_15_WHIP_0039.JPG,31,15,Pine,WHIP,4,9/27/19,11/1/19,11/10/19,Mesocarnivore
2250,39638779,1,COYOTE,31_15_WHIP_0073.JPG,31_15_WHIP_0074.JPG,31_15_WHIP_0075.JPG,31,15,Pine,WHIP,4,9/27/19,11/1/19,11/10/19,Mesocarnivore
2277,39638863,2,COYOTE,31_15_WHIP_0157.JPG,31_15_WHIP_0158.JPG,31_15_WHIP_0159.JPG,31,15,Pine,WHIP,4,9/27/19,11/1/19,11/10/19,Mesocarnivore
2345,39639806,1,COYOTE,31_15_WHIP_0553.JPG,31_15_WHIP_0554.JPG,31_15_WHIP_0555.JPG,31,15,Pine,WHIP,4,9/27/19,11/1/19,11/10/19,Mesocarnivore
2406,39639937,1,COYOTE,32_13_WHIP_0178.JPG,32_13_WHIP_0179.JPG,32_13_WHIP_0180.JPG,32,13,Pine,WHIP,4,9/27/19,11/12/19,11/12/19,Mesocarnivore
2428,31429152,2,COYOTE,32_17_WHIP_0067.JPG,32_17_WHIP_0068.JPG,32_17_WHIP_0069.JPG,32,17,Pine,WHIP,1,12/17/18,1/24/19,1/24/19,Mesocarnivore
2429,31429153,2,COYOTE,32_17_WHIP_0070.JPG,32_17_WHIP_0071.JPG,32_17_WHIP_0072.JPG,32,17,Pine,WHIP,1,12/17/18,1/24/19,1/24/19,Mesocarnivore
2480,31429174,1,COYOTE,33_01_WF_0061.JPG,33_01_WF_0062.JPG,33_01_WF_0063.JPG,33,1,Pine,WF,1,11/17/18,1/31/19,1/31/19,Mesocarnivore
2482,31429176,1,COYOTE,33_01_WF_0067.JPG,33_01_WF_0068.JPG,33_01_WF_0069.JPG,33,1,Pine,WF,1,11/17/18,1/31/19,1/31/19,Mesocarnivore
2635,39638797,1,COYOTE,33_38_DEG_0031.JPG,33_38_DEG_0032.JPG,33_38_DEG_0033.JPG,33,38,Pine,DEG,4,9/27/19,11/17/19,11/10/19,Mesocarnivore
2640,39638902,1,COYOTE,33_38_DEG_0046.JPG,33_38_DEG_0047.JPG,33_38_DEG_0048.JPG,33,38,Pine,DEG,4,9/27/19,11/17/19,11/10/19,Mesocarnivore
2659,39639904,1,COYOTE,33_38_DEG_0112.JPG,33_38_DEG_0113.JPG,33_38_DEG_0114.JPG,33,38,Pine,DEG,4,9/27/19,11/17/19,11/10/19,Mesocarnivore
2681,39906336,1,COYOTE,34_21_WF_0067.JPG,34_21_WF_0068.JPG,34_21_WF_0069.JPG,34,21,Pine,WF,4,9/29/19,1/26/20,12/14/19,Mesocarnivore
2714,39906456,1,COYOTE,34_21_WF_0172.JPG,34_21_WF_0173.JPG,34_21_WF_0174.JPG,34,21,Pine,WF,4,9/29/19,1/26/20,12/14/19,Mesocarnivore
2736,39906499,1,COYOTE,34_21_WF_0256.JPG,34_21_WF_0257.JPG,34_21_WF_0258.JPG,34,21,Pine,WF,4,9/29/19,1/26/20,12/14/19,Mesocarnivore
2762,39906551,1,COYOTE,34_21_WF_0367.JPG,34_21_WF_0368.JPG,34_21_WF_0369.JPG,34,21,Pine,WF,4,9/29/19,1/26/20,12/14/19,Mesocarnivore
2763,39906552,1,COYOTE,34_21_WF_0370.JPG,34_21_WF_0371.JPG,34_21_WF_0372.JPG,34,21,Pine,WF,4,9/29/19,1/26/20,12/14/19,Mesocarnivore
2827,39906348,1,COYOTE,36_32_WF_0115.JPG,36_32_WF_0116.JPG,36_32_WF_0117.JPG,36,32,Pine,WF,4,9/29/19,1/26/20,12/18/19,Mesocarnivore
2828,39906349,1,COYOTE,36_32_WF_0118.JPG,36_32_WF_0119.JPG,36_32_WF_0120.JPG,36,32,Pine,WF,4,9/29/19,1/26/20,12/18/19,Mesocarnivore
2829,39906350,1,COYOTE,36_32_WF_0121.JPG,36_32_WF_0122.JPG,36_32_WF_0123.JPG,36,32,Pine,WF,4,9/29/19,1/26/20,12/18/19,Mesocarnivore
2883,39906427,1,COYOTE,36_32_WF_0292.JPG,36_32_WF_0293.JPG,36_32_WF_0294.JPG,36,32,Pine,WF,4,9/29/19,1/26/20,12/18/19,Mesocarnivore
2889,39906433,1,COYOTE,36_32_WF_0310.JPG,36_32_WF_0311.JPG,36_32_WF_0312.JPG,36,32,Pine,WF,4,9/29/19,1/26/20,12/18/19,Mesocarnivore
2890,39906434,1,COYOTE,36_32_WF_0313.JPG,36_32_WF_0314.JPG,36_32_WF_0315.JPG,36,32,Pine,WF,4,9/29/19,1/26/20,12/18/19,Mesocarnivore
2891,39906435,1,COYOTE,36_32_WF_0316.JPG,36_32_WF_0317.JPG,36_32_WF_0318.JPG,36,32,Pine,WF,4,9/29/19,1/26/20,12/18/19,Mesocarnivore
2900,39906458,1,COYOTE,36_32_WF_0349.JPG,36_32_WF_0350.JPG,36_32_WF_0351.JPG,36,32,Pine,WF,4,9/29/19,1/26/20,12/18/19,Mesocarnivore
2901,39906460,1,COYOTE,36_32_WF_0355.JPG,36_32_WF_0356.JPG,36_32_WF_0357.JPG,36,32,Pine,WF,4,9/29/19,1/26/20,12/18/19,Mesocarnivore
2907,39906474,1,COYOTE,36_32_WF_0376.JPG,36_32_WF_0377.JPG,36_32_WF_0378.JPG,36,32,Pine,WF,4,9/29/19,1/26/20,12/18/19,Mesocarnivore
2908,39906475,2,COYOTE,36_32_WF_0379.JPG,36_32_WF_0380.JPG,36_32_WF_0381.JPG,36,32,Pine,WF,4,9/29/19,1/26/20,12/18/19,Mesocarnivore
2909,39906477,2,COYOTE,36_32_WF_0382.JPG,36_32_WF_0383.JPG,36_32_WF_0384.JPG,36,32,Pine,WF,4,9/29/19,1/26/20,12/18/19,Mesocarnivore
2914,39906484,1,COYOTE,36_32_WF_0400.JPG,36_32_WF_0401.JPG,36_32_WF_0402.JPG,36,32,Pine,WF,4,9/29/19,1/26/20,12/18/19,Mesocarnivore
2919,39906521,1,COYOTE,36_32_WF_0415.JPG,36_32_WF_0416.JPG,36_32_WF_0417.JPG,36,32,Pine,WF,4,9/29/19,1/26/20,12/18/19,Mesocarnivore
2925,39906531,1,COYOTE,36_32_WF_0433.JPG,36_32_WF_0434.JPG,36_32_WF_0435.JPG,36,32,Pine,WF,4,9/29/19,1/26/20,12/18/19,Mesocarnivore
2935,39906554,1,COYOTE,36_32_WF_0463.JPG,36_32_WF_0464.JPG,36_32_WF_0465.JPG,36,32,Pine,WF,4,9/29/19,1/26/20,12/18/19,Mesocarnivore
2950,39638898,1,COYOTE,37_31_DEG_0055.JPG,37_31_DEG_0056.JPG,37_31_DEG_0057.JPG,37,31,Pine,DEG,4,9/27/19,11/17/19,11/17/19,Mesocarnivore
2961,39639131,1,COYOTE,37_31_DEG_0097.JPG,37_31_DEG_0098.JPG,37_31_DEG_0099.JPG,37,31,Pine,DEG,4,9/27/19,11/17/19,11/17/19,Mesocarnivore
2976,39639489,1,COYOTE,37_31_DEG_0157.JPG,37_31_DEG_0158.JPG,37_31_DEG_0159.JPG,37,31,Pine,DEG,4,9/27/19,11/17/19,11/17/19,Mesocarnivore
2993,39639936,1,COYOTE,37_31_DEG_0211.JPG,37_31_DEG_0212.JPG,37_31_DEG_0213.JPG,37,31,Pine,DEG,4,9/27/19,11/17/19,11/17/19,Mesocarnivore
2,39638692,1,DEERWHITETAILED,01_23_DEG_000004.JPG,01_23_DEG_000005.JPG,01_23_DEG_000006.JPG,1,23,Pine,DEG,4,9/27/19,11/17/19,11/17/19,Herbivore
13,39638921,1,DEERWHITETAILED,01_23_DEG_000043.JPG,01_23_DEG_000044.JPG,01_23_DEG_000045.JPG,1,23,Pine,DEG,4,9/27/19,11/17/19,11/17/19,Herbivore
15,39638930,1,DEERWHITETAILED,01_23_DEG_000049.JPG,01_23_DEG_000051.JPG,01_23_DEG_000050.JPG,1,23,Pine,DEG,4,9/27/19,11/17/19,11/17/19,Herbivore
21,39639045,1,DEERWHITETAILED,01_23_DEG_000067.JPG,01_23_DEG_000068.JPG,01_23_DEG_000069.JPG,1,23,Pine,DEG,4,9/27/19,11/17/19,11/17/19,Herbivore
24,39639207,1,DEERWHITETAILED,01_23_DEG_000076.JPG,01_23_DEG_000077.JPG,01_23_DEG_000078.JPG,1,23,Pine,DEG,4,9/27/19,11/17/19,11/17/19,Herbivore
27,39639304,1,DEERWHITETAILED,01_23_DEG_000087.JPG,01_23_DEG_000085.JPG,01_23_DEG_000086.JPG,1,23,Pine,DEG,4,9/27/19,11/17/19,11/17/19,Herbivore
28,39639307,1,DEERWHITETAILED,01_23_DEG_000088.JPG,01_23_DEG_000089.JPG,01_23_DEG_000090.JPG,1,23,Pine,DEG,4,9/27/19,11/17/19,11/17/19,Herbivore
36,39639702,1,DEERWHITETAILED,01_23_DEG_000124.JPG,01_23_DEG_000125.JPG,01_23_DEG_000126.JPG,1,23,Pine,DEG,4,9/27/19,11/17/19,11/17/19,Herbivore
38,39639814,1,DEERWHITETAILED,01_23_DEG_000131.JPG,01_23_DEG_000130.JPG,01_23_DEG_000132.JPG,1,23,Pine,DEG,4,9/27/19,11/17/19,11/17/19,Herbivore
40,39639879,1,DEERWHITETAILED,01_23_DEG_000136.JPG,01_23_DEG_000137.JPG,01_23_DEG_000138.JPG,1,23,Pine,DEG,4,9/27/19,11/17/19,11/17/19,Herbivore
42,39639947,1,DEERWHITETAILED,01_23_DEG_000148.JPG,01_23_DEG_000149.JPG,01_23_DEG_000150.JPG,1,23,Pine,DEG,4,9/27/19,11/17/19,11/17/19,Herbivore
43,39639953,1,DEERWHITETAILED,01_23_DEG_000151.JPG,01_23_DEG_000152.JPG,01_23_DEG_000153.JPG,1,23,Pine,DEG,4,9/27/19,11/17/19,11/17/19,Herbivore
55,37156529,1,DEERWHITETAILED,02_42_WHIP_000004.JPG,02_42_WHIP_000005.JPG,02_42_WHIP_000006.JPG,2,42,Pine,WHIP,2,1/24/19,5/13/19,4/22/19,Herbivore
57,37156531,1,DEERWHITETAILED,02_42_WHIP_000010.JPG,02_42_WHIP_000011.JPG,02_42_WHIP_000012.JPG,2,42,Pine,WHIP,2,1/24/19,5/13/19,4/22/19,Herbivore
58,37156532,1,DEERWHITETAILED,02_42_WHIP_000013.JPG,02_42_WHIP_000014.JPG,02_42_WHIP_000015.JPG,2,42,Pine,WHIP,2,1/24/19,5/13/19,4/22/19,Herbivore
59,37156535,1,DEERWHITETAILED,02_42_WHIP_000022.JPG,02_42_WHIP_000023.JPG,NA,2,42,Pine,WHIP,2,1/24/19,5/13/19,4/22/19,Herbivore
60,37156536,1,DEERWHITETAILED,02_42_WHIP_000025.JPG,02_42_WHIP_000026.JPG,NA,2,42,Pine,WHIP,2,1/24/19,5/13/19,4/22/19,Herbivore
61,37156537,1,DEERWHITETAILED,02_42_WHIP_000028.JPG,02_42_WHIP_000029.JPG,NA,2,42,Pine,WHIP,2,1/24/19,5/13/19,4/22/19,Herbivore
62,37156538,1,DEERWHITETAILED,02_42_WHIP_000034.JPG,02_42_WHIP_000035.JPG,02_42_WHIP_000036.JPG,2,42,Pine,WHIP,2,1/24/19,5/13/19,4/22/19,Herbivore
63,37156540,1,DEERWHITETAILED,02_42_WHIP_000040.JPG,02_42_WHIP_000041.JPG,02_42_WHIP_000042.JPG,2,42,Pine,WHIP,2,1/24/19,5/13/19,4/22/19,Herbivore
65,37156542,1,DEERWHITETAILED,02_42_WHIP_000046.JPG,02_42_WHIP_000047.JPG,02_42_WHIP_000048.JPG,2,42,Pine,WHIP,2,1/24/19,5/13/19,4/22/19,Herbivore
66,37156543,1,DEERWHITETAILED,02_42_WHIP_000049.JPG,02_42_WHIP_000050.JPG,02_42_WHIP_000051.JPG,2,42,Pine,WHIP,2,1/24/19,5/13/19,4/22/19,Herbivore
70,37156547,1,DEERWHITETAILED,02_42_WHIP_000061.JPG,02_42_WHIP_000062.JPG,02_42_WHIP_000063.JPG,2,42,Pine,WHIP,2,1/24/19,5/13/19,4/22/19,Herbivore
71,37156548,1,DEERWHITETAILED,02_42_WHIP_000064.JPG,02_42_WHIP_000065.JPG,02_42_WHIP_000066.JPG,2,42,Pine,WHIP,2,1/24/19,5/13/19,4/22/19,Herbivore
72,37156550,1,DEERWHITETAILED,02_42_WHIP_000067.JPG,02_42_WHIP_000068.JPG,02_42_WHIP_000069.JPG,2,42,Pine,WHIP,2,1/24/19,5/13/19,4/22/19,Herbivore
73,37156551,1,DEERWHITETAILED,02_42_WHIP_000070.JPG,02_42_WHIP_000071.JPG,02_42_WHIP_000072.JPG,2,42,Pine,WHIP,2,1/24/19,5/13/19,4/22/19,Herbivore
75,37156553,1,DEERWHITETAILED,02_42_WHIP_000076.JPG,02_42_WHIP_000077.JPG,02_42_WHIP_000078.JPG,2,42,Pine,WHIP,2,1/24/19,5/13/19,4/22/19,Herbivore
79,37156557,1,DEERWHITETAILED,02_42_WHIP_000088.JPG,02_42_WHIP_000089.JPG,02_42_WHIP_000090.JPG,2,42,Pine,WHIP,2,1/24/19,5/13/19,4/22/19,Herbivore
80,37156558,1,DEERWHITETAILED,02_42_WHIP_000091.JPG,02_42_WHIP_000092.JPG,02_42_WHIP_000093.JPG,2,42,Pine,WHIP,2,1/24/19,5/13/19,4/22/19,Herbivore
83,37156561,1,DEERWHITETAILED,02_42_WHIP_000100.JPG,02_42_WHIP_000101.JPG,02_42_WHIP_000102.JPG,2,42,Pine,WHIP,2,1/24/19,5/13/19,4/22/19,Herbivore
87,37818851,1,DEERWHITETAILED,03_05_SH_000013.JPG,03_05_SH_000014.JPG,03_05_SH_000015.JPG,3,5,Deciduous,SH,1,11/14/18,2/11/19,11/28/18,Herbivore
88,31428290,1,DEERWHITETAILED,03_05_SH_000013.JPG,03_05_SH_000014.JPG,03_05_SH_000015.JPG,3,5,Deciduous,SH,3,5/10/19,8/31/19,8/31/19,Herbivore
91,37156565,1,DEERWHITETAILED,03_07_SH_000007.JPG,03_07_SH_000008.JPG,03_07_SH_000009.JPG,3,7,Deciduous,SH,2,2/11/19,5/10/19,5/10/19,Herbivore
92,37156566,1,DEERWHITETAILED,03_07_SH_000010.JPG,03_07_SH_000011.JPG,03_07_SH_000012.JPG,3,7,Deciduous,SH,2,2/11/19,5/10/19,5/10/19,Herbivore
93,37156567,1,DEERWHITETAILED,03_07_SH_000013.JPG,03_07_SH_000014.JPG,03_07_SH_000015.JPG,3,7,Deciduous,SH,2,2/11/19,5/10/19,5/10/19,Herbivore
94,37156569,1,DEERWHITETAILED,03_07_SH_000019.JPG,03_07_SH_000020.JPG,03_07_SH_000021.JPG,3,7,Deciduous,SH,2,2/11/19,5/10/19,5/10/19,Herbivore
95,37156570,1,DEERWHITETAILED,03_07_SH_000022.JPG,03_07_SH_000023.JPG,03_07_SH_000024.JPG,3,7,Deciduous,SH,2,2/11/19,5/10/19,5/10/19,Herbivore
96,37156571,1,DEERWHITETAILED,03_07_SH_000025.JPG,03_07_SH_000026.JPG,03_07_SH_000027.JPG,3,7,Deciduous,SH,2,2/11/19,5/10/19,5/10/19,Herbivore
97,37156572,1,DEERWHITETAILED,03_07_SH_000028.JPG,03_07_SH_000029.JPG,03_07_SH_000030.JPG,3,7,Deciduous,SH,2,2/11/19,5/10/19,5/10/19,Herbivore
98,37156573,1,DEERWHITETAILED,03_07_SH_000031.JPG,03_07_SH_000032.JPG,03_07_SH_000033.JPG,3,7,Deciduous,SH,2,2/11/19,5/10/19,5/10/19,Herbivore
100,37156582,1,DEERWHITETAILED,03_07_SH_000058.JPG,03_07_SH_000059.JPG,03_07_SH_000060.JPG,3,7,Deciduous,SH,2,2/11/19,5/10/19,5/10/19,Herbivore
101,37156583,1,DEERWHITETAILED,03_07_SH_000061.JPG,03_07_SH_000062.JPG,03_07_SH_000063.JPG,3,7,Deciduous,SH,2,2/11/19,5/10/19,5/10/19,Herbivore
102,37156584,1,DEERWHITETAILED,03_07_SH_000064.JPG,03_07_SH_000065.JPG,03_07_SH_000066.JPG,3,7,Deciduous,SH,2,2/11/19,5/10/19,5/10/19,Herbivore
103,37156585,1,DEERWHITETAILED,03_07_SH_000067.JPG,03_07_SH_000068.JPG,03_07_SH_000069.JPG,3,7,Deciduous,SH,2,2/11/19,5/10/19,5/10/19,Herbivore
104,37156586,1,DEERWHITETAILED,03_07_SH_000070.JPG,03_07_SH_000071.JPG,03_07_SH_000072.JPG,3,7,Deciduous,SH,2,2/11/19,5/10/19,5/10/19,Herbivore
105,37156588,1,DEERWHITETAILED,03_07_SH_000076.JPG,03_07_SH_000077.JPG,03_07_SH_000078.JPG,3,7,Deciduous,SH,2,2/11/19,5/10/19,5/10/19,Herbivore
106,37156589,2,DEERWHITETAILED,03_07_SH_000079.JPG,03_07_SH_000080.JPG,03_07_SH_000081.JPG,3,7,Deciduous,SH,2,2/11/19,5/10/19,5/10/19,Herbivore
107,37156590,1,DEERWHITETAILED,03_07_SH_000082.JPG,03_07_SH_000083.JPG,03_07_SH_000084.JPG,3,7,Deciduous,SH,2,2/11/19,5/10/19,5/10/19,Herbivore
108,37156591,1,DEERWHITETAILED,03_07_SH_000085.JPG,03_07_SH_000086.JPG,03_07_SH_000087.JPG,3,7,Deciduous,SH,2,2/11/19,5/10/19,5/10/19,Herbivore
109,37156592,1,DEERWHITETAILED,03_07_SH_000088.JPG,03_07_SH_000089.JPG,03_07_SH_000090.JPG,3,7,Deciduous,SH,2,2/11/19,5/10/19,5/10/19,Herbivore
110,37156593,1,DEERWHITETAILED,03_07_SH_000091.JPG,03_07_SH_000092.JPG,03_07_SH_000093.JPG,3,7,Deciduous,SH,2,2/11/19,5/10/19,5/10/19,Herbivore
111,37156594,1,DEERWHITETAILED,03_07_SH_000094.JPG,03_07_SH_000095.JPG,03_07_SH_000096.JPG,3,7,Deciduous,SH,2,2/11/19,5/10/19,5/10/19,Herbivore
112,37156595,1,DEERWHITETAILED,03_07_SH_000097.JPG,03_07_SH_000098.JPG,03_07_SH_000099.JPG,3,7,Deciduous,SH,2,2/11/19,5/10/19,5/10/19,Herbivore
113,37156596,1,DEERWHITETAILED,03_07_SH_000100.JPG,03_07_SH_000101.JPG,03_07_SH_000102.JPG,3,7,Deciduous,SH,2,2/11/19,5/10/19,5/10/19,Herbivore
114,37156597,1,DEERWHITETAILED,03_07_SH_000103.JPG,03_07_SH_000104.JPG,03_07_SH_000105.JPG,3,7,Deciduous,SH,2,2/11/19,5/10/19,5/10/19,Herbivore
115,37156598,1,DEERWHITETAILED,03_07_SH_000109.JPG,03_07_SH_000110.JPG,03_07_SH_000111.JPG,3,7,Deciduous,SH,2,2/11/19,5/10/19,5/10/19,Herbivore
116,37156599,1,DEERWHITETAILED,03_07_SH_000112.JPG,03_07_SH_000113.JPG,03_07_SH_000114.JPG,3,7,Deciduous,SH,2,2/11/19,5/10/19,5/10/19,Herbivore
117,37156600,1,DEERWHITETAILED,03_07_SH_000115.JPG,03_07_SH_000116.JPG,03_07_SH_000117.JPG,3,7,Deciduous,SH,2,2/11/19,5/10/19,5/10/19,Herbivore
118,37156601,2,DEERWHITETAILED,03_07_SH_000118.JPG,03_07_SH_000119.JPG,03_07_SH_000120.JPG,3,7,Deciduous,SH,2,2/11/19,5/10/19,5/10/19,Herbivore
119,37156602,1,DEERWHITETAILED,03_07_SH_000121.JPG,03_07_SH_000122.JPG,03_07_SH_000123.JPG,3,7,Deciduous,SH,2,2/11/19,5/10/19,5/10/19,Herbivore
126,39639522,1,DEERWHITETAILED,03_39_WF_000016.JPG,03_39_WF_000017.JPG,03_39_WF_000018.JPG,3,39,Pine,WF,4,9/29/19,12/6/19,12/6/19,Herbivore
129,39639903,1,DEERWHITETAILED,03_39_WF_000028.JPG,03_39_WF_000029.JPG,03_39_WF_000030.JPG,3,39,Pine,WF,4,9/29/19,12/6/19,12/6/19,Herbivore
130,39639949,1,DEERWHITETAILED,03_39_WF_000031.JPG,03_39_WF_000032.JPG,03_39_WF_000033.JPG,3,39,Pine,WF,4,9/29/19,12/6/19,12/6/19,Herbivore
131,39639950,1,DEERWHITETAILED,03_39_WF_000034.JPG,03_39_WF_000035.JPG,03_39_WF_000036.JPG,3,39,Pine,WF,4,9/29/19,12/6/19,12/6/19,Herbivore
132,39640010,1,DEERWHITETAILED,03_39_WF_000037.JPG,03_39_WF_000038.JPG,03_39_WF_000039.JPG,3,39,Pine,WF,4,9/29/19,12/6/19,12/6/19,Herbivore
138,40303374,1,DEERWHITETAILED,04_12_BC_000016.JPG,04_12_BC_000017.JPG,04_12_BC_000018.JPG,4,12,Deciduous,BC,4,10/19/19,2/2/20,12/15/19,Herbivore
139,40303375,1,DEERWHITETAILED,04_12_BC_000019.JPG,04_12_BC_000020.JPG,04_12_BC_000021.JPG,4,12,Deciduous,BC,4,10/19/19,2/2/20,12/15/19,Herbivore
140,40303376,1,DEERWHITETAILED,04_12_BC_000022.JPG,04_12_BC_000023.JPG,04_12_BC_000024.JPG,4,12,Deciduous,BC,4,10/19/19,2/2/20,12/15/19,Herbivore
141,40303377,1,DEERWHITETAILED,04_12_BC_000025.JPG,04_12_BC_000026.JPG,04_12_BC_000027.JPG,4,12,Deciduous,BC,4,10/19/19,2/2/20,12/15/19,Herbivore
146,40303387,1,DEERWHITETAILED,04_12_BC_000043.JPG,04_12_BC_000044.JPG,04_12_BC_000045.JPG,4,12,Deciduous,BC,4,10/19/19,2/2/20,12/15/19,Herbivore
147,40303388,1,DEERWHITETAILED,04_12_BC_000046.JPG,04_12_BC_000047.JPG,04_12_BC_000048.JPG,4,12,Deciduous,BC,4,10/19/19,2/2/20,12/15/19,Herbivore
158,31428297,1,DEERWHITETAILED,04_26_WF_000019.JPG,04_26_WF_000020.JPG,04_26_WF_000021.JPG,4,26,Pine,WF,1,11/17/18,1/31/19,1/10/19,Herbivore
159,31428298,1,DEERWHITETAILED,04_26_WF_000022.JPG,04_26_WF_000023.JPG,04_26_WF_000024.JPG,4,26,Pine,WF,1,11/17/18,1/31/19,1/10/19,Herbivore
160,31428299,1,DEERWHITETAILED,04_26_WF_000025.JPG,04_26_WF_000026.JPG,04_26_WF_000027.JPG,4,26,Pine,WF,1,11/17/18,1/31/19,1/10/19,Herbivore
161,31428300,1,DEERWHITETAILED,04_26_WF_000028.JPG,04_26_WF_000029.JPG,04_26_WF_000030.JPG,4,26,Pine,WF,1,11/17/18,1/31/19,1/10/19,Herbivore
163,31428302,1,DEERWHITETAILED,04_26_WF_000034.JPG,04_26_WF_000035.JPG,04_26_WF_000036.JPG,4,26,Pine,WF,1,11/17/18,1/31/19,1/10/19,Herbivore
168,37156611,1,DEERWHITETAILED,04_36_WF_000019.JPG,04_36_WF_000020.JPG,04_36_WF_000021.JPG,4,36,Pine,WF,2,1/31/19,5/15/19,3/26/19,Herbivore
169,37156612,1,DEERWHITETAILED,04_36_WF_000022.JPG,04_36_WF_000023.JPG,04_36_WF_000024.JPG,4,36,Pine,WF,2,1/31/19,5/15/19,3/26/19,Herbivore
170,37156613,1,DEERWHITETAILED,04_36_WF_000025.JPG,04_36_WF_000026.JPG,04_36_WF_000027.JPG,4,36,Pine,WF,2,1/31/19,5/15/19,3/26/19,Herbivore
171,37156614,1,DEERWHITETAILED,04_36_WF_000028.JPG,04_36_WF_000029.JPG,04_36_WF_000030.JPG,4,36,Pine,WF,2,1/31/19,5/15/19,3/26/19,Herbivore
172,37156615,1,DEERWHITETAILED,04_36_WF_000031.JPG,04_36_WF_000032.JPG,04_36_WF_000033.JPG,4,36,Pine,WF,2,1/31/19,5/15/19,3/26/19,Herbivore
173,37156617,1,DEERWHITETAILED,04_36_WF_000037.JPG,04_36_WF_000038.JPG,04_36_WF_000039.JPG,4,36,Pine,WF,2,1/31/19,5/15/19,3/26/19,Herbivore
174,37156618,1,DEERWHITETAILED,04_36_WF_000040.JPG,04_36_WF_000041.JPG,04_36_WF_000042.JPG,4,36,Pine,WF,2,1/31/19,5/15/19,3/26/19,Herbivore
175,37156619,1,DEERWHITETAILED,04_36_WF_000043.JPG,04_36_WF_000044.JPG,04_36_WF_000045.JPG,4,36,Pine,WF,2,1/31/19,5/15/19,3/26/19,Herbivore
176,37156620,1,DEERWHITETAILED,04_36_WF_000046.JPG,04_36_WF_000047.JPG,04_36_WF_000048.JPG,4,36,Pine,WF,2,1/31/19,5/15/19,3/26/19,Herbivore
178,37156622,1,DEERWHITETAILED,04_36_WF_000052.JPG,04_36_WF_000053.JPG,04_36_WF_000054.JPG,4,36,Pine,WF,2,1/31/19,5/15/19,3/26/19,Herbivore
180,37156624,1,DEERWHITETAILED,04_36_WF_000058.JPG,04_36_WF_000059.JPG,04_36_WF_000060.JPG,4,36,Pine,WF,2,1/31/19,5/15/19,3/26/19,Herbivore
181,37156625,1,DEERWHITETAILED,04_36_WF_000061.JPG,04_36_WF_000062.JPG,04_36_WF_000063.JPG,4,36,Pine,WF,2,1/31/19,5/15/19,3/26/19,Herbivore
182,37156626,1,DEERWHITETAILED,04_36_WF_000064.JPG,04_36_WF_000065.JPG,04_36_WF_000066.JPG,4,36,Pine,WF,2,1/31/19,5/15/19,3/26/19,Herbivore
183,37156627,1,DEERWHITETAILED,04_36_WF_000067.JPG,04_36_WF_000068.JPG,04_36_WF_000069.JPG,4,36,Pine,WF,2,1/31/19,5/15/19,3/26/19,Herbivore
185,37156629,1,DEERWHITETAILED,04_36_WF_000082.JPG,04_36_WF_000083.JPG,NA,4,36,Pine,WF,2,1/31/19,5/15/19,3/26/19,Herbivore
186,37156630,1,DEERWHITETAILED,04_36_WF_000085.JPG,04_36_WF_000086.JPG,NA,4,36,Pine,WF,2,1/31/19,5/15/19,3/26/19,Herbivore
189,37156633,1,DEERWHITETAILED,04_36_WF_000097.JPG,04_36_WF_000098.JPG,NA,4,36,Pine,WF,2,1/31/19,5/15/19,3/26/19,Herbivore
190,37156634,1,DEERWHITETAILED,04_36_WF_000100.JPG,04_36_WF_000101.JPG,04_36_WF_000102.JPG,4,36,Pine,WF,2,1/31/19,5/15/19,3/26/19,Herbivore
191,37156635,1,DEERWHITETAILED,04_36_WF_000103.JPG,04_36_WF_000104.JPG,04_36_WF_000105.JPG,4,36,Pine,WF,2,1/31/19,5/15/19,3/26/19,Herbivore
192,37156636,1,DEERWHITETAILED,04_36_WF_000106.JPG,04_36_WF_000107.JPG,NA,4,36,Pine,WF,2,1/31/19,5/15/19,3/26/19,Herbivore
193,37156637,1,DEERWHITETAILED,04_36_WF_000109.JPG,04_36_WF_000110.JPG,04_36_WF_000111.JPG,4,36,Pine,WF,2,1/31/19,5/15/19,3/26/19,Herbivore
194,37156638,1,DEERWHITETAILED,04_36_WF_000112.JPG,04_36_WF_000113.JPG,04_36_WF_000114.JPG,4,36,Pine,WF,2,1/31/19,5/15/19,3/26/19,Herbivore
195,37156639,2,DEERWHITETAILED,04_36_WF_000115.JPG,04_36_WF_000116.JPG,04_36_WF_000117.JPG,4,36,Pine,WF,2,1/31/19,5/15/19,3/26/19,Herbivore
196,37156640,1,DEERWHITETAILED,04_36_WF_000118.JPG,04_36_WF_000119.JPG,04_36_WF_000120.JPG,4,36,Pine,WF,2,1/31/19,5/15/19,3/26/19,Herbivore
197,37156641,1,DEERWHITETAILED,04_36_WF_000121.JPG,04_36_WF_000122.JPG,04_36_WF_000123.JPG,4,36,Pine,WF,2,1/31/19,5/15/19,3/26/19,Herbivore
200,37156645,1,DEERWHITETAILED,04_36_WF_000133.JPG,04_36_WF_000134.JPG,04_36_WF_000135.JPG,4,36,Pine,WF,2,1/31/19,5/15/19,3/26/19,Herbivore
201,37156646,1,DEERWHITETAILED,04_36_WF_000136.JPG,04_36_WF_000137.JPG,04_36_WF_000138.JPG,4,36,Pine,WF,2,1/31/19,5/15/19,3/26/19,Herbivore
202,37156647,1,DEERWHITETAILED,04_36_WF_000139.JPG,04_36_WF_000140.JPG,04_36_WF_000141.JPG,4,36,Pine,WF,2,1/31/19,5/15/19,3/26/19,Herbivore
203,37156649,1,DEERWHITETAILED,04_36_WF_000145.JPG,04_36_WF_000146.JPG,04_36_WF_000147.JPG,4,36,Pine,WF,2,1/31/19,5/15/19,3/26/19,Herbivore
206,39638718,1,DEERWHITETAILED,05_34_WF_000007.JPG,05_34_WF_000008.JPG,05_34_WF_000009.JPG,5,34,Pine,WF,4,9/29/19,12/6/19,12/6/19,Herbivore
213,39639379,1,DEERWHITETAILED,05_34_WF_000028.JPG,05_34_WF_000029.JPG,05_34_WF_000030.JPG,5,34,Pine,WF,4,9/29/19,12/6/19,12/6/19,Herbivore
214,39639590,1,DEERWHITETAILED,05_34_WF_000034.JPG,05_34_WF_000036.JPG,05_34_WF_000035.JPG,5,34,Pine,WF,4,9/29/19,12/6/19,12/6/19,Herbivore
215,39639703,2,DEERWHITETAILED,05_34_WF_000040.JPG,05_34_WF_000041.JPG,05_34_WF_000042.JPG,5,34,Pine,WF,4,9/29/19,12/6/19,12/6/19,Herbivore
216,39639704,1,DEERWHITETAILED,05_34_WF_000043.JPG,05_34_WF_000044.JPG,05_34_WF_000045.JPG,5,34,Pine,WF,4,9/29/19,12/6/19,12/6/19,Herbivore
217,39639851,1,DEERWHITETAILED,05_34_WF_000046.JPG,05_34_WF_000047.JPG,05_34_WF_000048.JPG,5,34,Pine,WF,4,9/29/19,12/6/19,12/6/19,Herbivore
218,39639905,1,DEERWHITETAILED,05_34_WF_000050.JPG,05_34_WF_000049.JPG,NA,5,34,Pine,WF,4,9/29/19,12/6/19,12/6/19,Herbivore
219,39639943,1,DEERWHITETAILED,05_34_WF_000052.JPG,05_34_WF_000053.JPG,05_34_WF_000054.JPG,5,34,Pine,WF,4,9/29/19,12/6/19,12/6/19,Herbivore
220,39639959,1,DEERWHITETAILED,05_34_WF_000055.JPG,05_34_WF_000056.JPG,05_34_WF_000057.JPG,5,34,Pine,WF,4,9/29/19,12/6/19,12/6/19,Herbivore
221,39639968,2,DEERWHITETAILED,05_34_WF_000058.JPG,05_34_WF_000059.JPG,05_34_WF_000060.JPG,5,34,Pine,WF,4,9/29/19,12/6/19,12/6/19,Herbivore
223,39640002,1,DEERWHITETAILED,05_34_WF_000064.JPG,05_34_WF_000065.JPG,05_34_WF_000066.JPG,5,34,Pine,WF,4,9/29/19,12/6/19,12/6/19,Herbivore
227,37820161,1,DEERWHITETAILED,06_41_DON_05210004.JPG,06_41_DON_05210005.JPG,06_41_DON_05210006.JPG,6,41,Deciduous,DON,3,5/16/19,9/7/19,9/6/19,Herbivore
228,37820162,2,DEERWHITETAILED,06_41_DON_05210007.JPG,06_41_DON_05210008.JPG,06_41_DON_05210009.JPG,6,41,Deciduous,DON,3,5/16/19,9/7/19,9/6/19,Herbivore
229,37820164,2,DEERWHITETAILED,06_41_DON_05210010.JPG,06_41_DON_05210011.JPG,06_41_DON_05210012.JPG,6,41,Deciduous,DON,3,5/16/19,9/7/19,9/6/19,Herbivore
230,37820165,2,DEERWHITETAILED,06_41_DON_05210013.JPG,06_41_DON_05210014.JPG,06_41_DON_05210015.JPG,6,41,Deciduous,DON,3,5/16/19,9/7/19,9/6/19,Herbivore
231,37820166,1,DEERWHITETAILED,06_41_DON_05210016.JPG,06_41_DON_05210017.JPG,06_41_DON_05210018.JPG,6,41,Deciduous,DON,3,5/16/19,9/7/19,9/6/19,Herbivore
233,37820259,1,DEERWHITETAILED,06_41_DON_05220025.JPG,06_41_DON_05220026.JPG,06_41_DON_05220027.JPG,6,41,Deciduous,DON,3,5/16/19,9/7/19,9/6/19,Herbivore
235,37820331,1,DEERWHITETAILED,06_41_DON_05250031.JPG,06_41_DON_05250032.JPG,06_41_DON_05250033.JPG,6,41,Deciduous,DON,3,5/16/19,9/7/19,9/6/19,Herbivore
236,37820449,1,DEERWHITETAILED,06_41_DON_05300055.JPG,06_41_DON_05300056.JPG,06_41_DON_05300057.JPG,6,41,Deciduous,DON,3,5/16/19,9/7/19,9/6/19,Herbivore
237,37820452,1,DEERWHITETAILED,06_41_DON_05300058.JPG,06_41_DON_05300059.JPG,06_41_DON_05300060.JPG,6,41,Deciduous,DON,3,5/16/19,9/7/19,9/6/19,Herbivore
238,37820453,2,DEERWHITETAILED,06_41_DON_05300061.JPG,06_41_DON_05300062.JPG,06_41_DON_05300063.JPG,6,41,Deciduous,DON,3,5/16/19,9/7/19,9/6/19,Herbivore
239,37820454,2,DEERWHITETAILED,06_41_DON_05300064.JPG,06_41_DON_05300065.JPG,06_41_DON_05300066.JPG,6,41,Deciduous,DON,3,5/16/19,9/7/19,9/6/19,Herbivore
240,37820457,1,DEERWHITETAILED,06_41_DON_05300070.JPG,06_41_DON_05300071.JPG,06_41_DON_05300072.JPG,6,41,Deciduous,DON,3,5/16/19,9/7/19,9/6/19,Herbivore
241,37820460,1,DEERWHITETAILED,06_41_DON_05310073.JPG,06_41_DON_05310074.JPG,06_41_DON_05310075.JPG,6,41,Deciduous,DON,3,5/16/19,9/7/19,9/6/19,Herbivore
243,37820590,1,DEERWHITETAILED,06_41_DON_06040082.JPG,06_41_DON_06040083.JPG,06_41_DON_06040084.JPG,6,41,Deciduous,DON,3,5/16/19,9/7/19,9/6/19,Herbivore
246,37820998,1,DEERWHITETAILED,06_41_DON_06140091.JPG,06_41_DON_06140092.JPG,06_41_DON_06140093.JPG,6,41,Deciduous,DON,3,5/16/19,9/7/19,9/6/19,Herbivore
247,37821000,2,DEERWHITETAILED,06_41_DON_06140094.JPG,06_41_DON_06140095.JPG,06_41_DON_06140096.JPG,6,41,Deciduous,DON,3,5/16/19,9/7/19,9/6/19,Herbivore
248,37821171,1,DEERWHITETAILED,06_41_DON_06150097.JPG,06_41_DON_06150098.JPG,06_41_DON_06150099.JPG,6,41,Deciduous,DON,3,5/16/19,9/7/19,9/6/19,Herbivore
250,37821358,1,DEERWHITETAILED,06_41_DON_06200103.JPG,06_41_DON_06200104.JPG,06_41_DON_06200105.JPG,6,41,Deciduous,DON,3,5/16/19,9/7/19,9/6/19,Herbivore
251,37821942,1,DEERWHITETAILED,06_41_DON_06300109.JPG,06_41_DON_06300110.JPG,06_41_DON_06300111.JPG,6,41,Deciduous,DON,3,5/16/19,9/7/19,9/6/19,Herbivore
252,37822056,1,DEERWHITETAILED,06_41_DON_07060112.JPG,06_41_DON_07060113.JPG,06_41_DON_07060114.JPG,6,41,Deciduous,DON,3,5/16/19,9/7/19,9/6/19,Herbivore
253,37822057,1,DEERWHITETAILED,06_41_DON_07060115.JPG,06_41_DON_07060116.JPG,06_41_DON_07060117.JPG,6,41,Deciduous,DON,3,5/16/19,9/7/19,9/6/19,Herbivore
254,37822110,2,DEERWHITETAILED,06_41_DON_07090121.JPG,06_41_DON_07090122.JPG,06_41_DON_07090123.JPG,6,41,Deciduous,DON,3,5/16/19,9/7/19,9/6/19,Herbivore
255,37822253,1,DEERWHITETAILED,06_41_DON_07160127.JPG,06_41_DON_07160128.JPG,06_41_DON_07160129.JPG,6,41,Deciduous,DON,3,5/16/19,9/7/19,9/6/19,Herbivore
257,37822322,1,DEERWHITETAILED,06_41_DON_07190133.JPG,06_41_DON_07190134.JPG,06_41_DON_07190135.JPG,6,41,Deciduous,DON,3,5/16/19,9/7/19,9/6/19,Herbivore
258,37822324,1,DEERWHITETAILED,06_41_DON_07190136.JPG,06_41_DON_07190137.JPG,06_41_DON_07190138.JPG,6,41,Deciduous,DON,3,5/16/19,9/7/19,9/6/19,Herbivore
259,37822325,1,DEERWHITETAILED,06_41_DON_07190139.JPG,06_41_DON_07190140.JPG,06_41_DON_07190141.JPG,6,41,Deciduous,DON,3,5/16/19,9/7/19,9/6/19,Herbivore
260,37822336,1,DEERWHITETAILED,06_41_DON_07200142.JPG,06_41_DON_07200143.JPG,06_41_DON_07200144.JPG,6,41,Deciduous,DON,3,5/16/19,9/7/19,9/6/19,Herbivore
261,37822368,2,DEERWHITETAILED,06_41_DON_07220145.JPG,06_41_DON_07220146.JPG,06_41_DON_07220147.JPG,6,41,Deciduous,DON,3,5/16/19,9/7/19,9/6/19,Herbivore
262,37822392,1,DEERWHITETAILED,06_41_DON_07240148.JPG,06_41_DON_07240149.JPG,06_41_DON_07240150.JPG,6,41,Deciduous,DON,3,5/16/19,9/7/19,9/6/19,Herbivore
263,37822746,1,DEERWHITETAILED,06_41_DON_08070154.JPG,06_41_DON_08070155.JPG,06_41_DON_08070156.JPG,6,41,Deciduous,DON,3,5/16/19,9/7/19,9/6/19,Herbivore
264,37822752,1,DEERWHITETAILED,06_41_DON_08080160.JPG,06_41_DON_08080161.JPG,06_41_DON_08080162.JPG,6,41,Deciduous,DON,3,5/16/19,9/7/19,9/6/19,Herbivore
265,37822954,1,DEERWHITETAILED,06_41_DON_08130163.JPG,06_41_DON_08130164.JPG,06_41_DON_08130165.JPG,6,41,Deciduous,DON,3,5/16/19,9/7/19,9/6/19,Herbivore
266,37822959,1,DEERWHITETAILED,06_41_DON_08130166.JPG,06_41_DON_08130167.JPG,06_41_DON_08130168.JPG,6,41,Deciduous,DON,3,5/16/19,9/7/19,9/6/19,Herbivore
267,37822961,1,DEERWHITETAILED,06_41_DON_08130169.JPG,06_41_DON_08130170.JPG,06_41_DON_08130171.JPG,6,41,Deciduous,DON,3,5/16/19,9/7/19,9/6/19,Herbivore
268,37823035,1,DEERWHITETAILED,06_41_DON_08180172.JPG,06_41_DON_08180173.JPG,06_41_DON_08180174.JPG,6,41,Deciduous,DON,3,5/16/19,9/7/19,9/6/19,Herbivore
275,37823716,1,DEERWHITETAILED,06_41_DON_08310208.JPG,06_41_DON_08310209.JPG,06_41_DON_08310210.JPG,6,41,Deciduous,DON,3,5/16/19,9/7/19,9/6/19,Herbivore
276,37823979,1,DEERWHITETAILED,06_41_DON_09060211.JPG,06_41_DON_09060212.JPG,06_41_DON_09060213.JPG,6,41,Deciduous,DON,3,5/16/19,9/7/19,9/6/19,Herbivore
291,39638724,1,DEERWHITETAILED,07_42_WHIP_000040.JPG,07_42_WHIP_000041.JPG,07_42_WHIP_000042.JPG,7,42,Pine,WHIP,4,9/27/19,11/12/19,11/11/19,Herbivore
294,39638790,1,DEERWHITETAILED,07_42_WHIP_000058.JPG,07_42_WHIP_000059.JPG,07_42_WHIP_000060.JPG,7,42,Pine,WHIP,4,9/27/19,11/12/19,11/11/19,Herbivore
298,39638832,1,DEERWHITETAILED,07_42_WHIP_000070.JPG,07_42_WHIP_000071.JPG,07_42_WHIP_000072.JPG,7,42,Pine,WHIP,4,9/27/19,11/12/19,11/11/19,Herbivore
341,39639593,1,DEERWHITETAILED,07_42_WHIP_000217.JPG,07_42_WHIP_000218.JPG,07_42_WHIP_000219.JPG,7,42,Pine,WHIP,4,9/27/19,11/12/19,11/11/19,Herbivore
343,39639661,1,DEERWHITETAILED,07_42_WHIP_000223.JPG,07_42_WHIP_000224.JPG,07_42_WHIP_000225.JPG,7,42,Pine,WHIP,4,9/27/19,11/12/19,11/11/19,Herbivore
346,39639868,1,DEERWHITETAILED,07_42_WHIP_000235.JPG,07_42_WHIP_000236.JPG,07_42_WHIP_000237.JPG,7,42,Pine,WHIP,4,9/27/19,11/12/19,11/11/19,Herbivore
347,39639929,1,DEERWHITETAILED,07_42_WHIP_000238.JPG,07_42_WHIP_000239.JPG,07_42_WHIP_000240.JPG,7,42,Pine,WHIP,4,9/27/19,11/12/19,11/11/19,Herbivore
348,37160179,1,DEERWHITETAILED,08_11_DEG_000001.JPG,08_11_DEG_000002.JPG,08_11_DEG_000003.JPG,8,11,Pine,DEG,2,2/7/19,5/13/19,4/18/19,Herbivore
349,37160180,2,DEERWHITETAILED,08_11_DEG_000004.JPG,08_11_DEG_000005.JPG,08_11_DEG_000006.JPG,8,11,Pine,DEG,2,2/7/19,5/13/19,4/18/19,Herbivore
350,37160181,1,DEERWHITETAILED,08_11_DEG_000007.JPG,08_11_DEG_000008.JPG,08_11_DEG_000009.JPG,8,11,Pine,DEG,2,2/7/19,5/13/19,4/18/19,Herbivore
351,37160182,1,DEERWHITETAILED,08_11_DEG_000010.JPG,08_11_DEG_000011.JPG,08_11_DEG_000012.JPG,8,11,Pine,DEG,2,2/7/19,5/13/19,4/18/19,Herbivore
352,37160183,1,DEERWHITETAILED,08_11_DEG_000013.JPG,08_11_DEG_000014.JPG,08_11_DEG_000015.JPG,8,11,Pine,DEG,2,2/7/19,5/13/19,4/18/19,Herbivore
353,31428313,1,DEERWHITETAILED,09_25_WF_000001.JPG,09_25_WF_000002.JPG,09_25_WF_000003.JPG,9,25,Pine,WF,1,11/17/18,1/31/19,12/2/18,Herbivore
355,37160232,1,DEERWHITETAILED,10_25_SH_000004.JPG,10_25_SH_000005.JPG,10_25_SH_000006.JPG,10,25,Deciduous,SH,2,2/11/19,5/10/19,5/10/19,Herbivore
356,37160233,1,DEERWHITETAILED,10_25_SH_000007.JPG,10_25_SH_000008.JPG,10_25_SH_000009.JPG,10,25,Deciduous,SH,2,2/11/19,5/10/19,5/10/19,Herbivore
357,37160234,1,DEERWHITETAILED,10_25_SH_000010.JPG,10_25_SH_000011.JPG,10_25_SH_000012.JPG,10,25,Deciduous,SH,2,2/11/19,5/10/19,5/10/19,Herbivore
362,41008463,1,DEERWHITETAILED,10_35_DON_000010.JPG,10_35_DON_000011.JPG,10_35_DON_000012.JPG,10,35,Deciduous,DON,4,9/17/19,11/15/19,11/15/19,Herbivore
365,41008524,1,DEERWHITETAILED,10_35_DON_000160.JPG,10_35_DON_000161.JPG,10_35_DON_000162.JPG,10,35,Deciduous,DON,4,9/17/19,11/15/19,11/15/19,Herbivore
370,31428315,1,DEERWHITETAILED,11_13_BC_000002.JPG,11_13_BC_000001.JPG,11_13_BC_000003.JPG,11,13,Deciduous,BC,1,11/15/18,3/4/19,3/4/19,Herbivore
371,31428316,1,DEERWHITETAILED,11_13_BC_000004.JPG,11_13_BC_000005.JPG,11_13_BC_000006.JPG,11,13,Deciduous,BC,1,11/15/18,3/4/19,3/4/19,Herbivore
424,31428383,1,DEERWHITETAILED,11_13_BC_000208.JPG,11_13_BC_000209.JPG,11_13_BC_000210.JPG,11,13,Deciduous,BC,1,11/15/18,3/4/19,3/4/19,Herbivore
425,31428384,1,DEERWHITETAILED,11_13_BC_000211.JPG,11_13_BC_000212.JPG,11_13_BC_000213.JPG,11,13,Deciduous,BC,1,11/15/18,3/4/19,3/4/19,Herbivore
426,31428385,1,DEERWHITETAILED,11_13_BC_000214.JPG,11_13_BC_000215.JPG,11_13_BC_000216.JPG,11,13,Deciduous,BC,1,11/15/18,3/4/19,3/4/19,Herbivore
427,31428386,1,DEERWHITETAILED,11_13_BC_000217.JPG,11_13_BC_000218.JPG,11_13_BC_000219.JPG,11,13,Deciduous,BC,1,11/15/18,3/4/19,3/4/19,Herbivore
428,31428387,1,DEERWHITETAILED,11_13_BC_000220.JPG,11_13_BC_000221.JPG,11_13_BC_000222.JPG,11,13,Deciduous,BC,1,11/15/18,3/4/19,3/4/19,Herbivore
443,37161887,1,DEERWHITETAILED,14_05_DON_000034.JPG,14_05_DON_000035.JPG,14_05_DON_000036.JPG,14,5,Deciduous,DON,2,2/28/19,5/16/19,4/22/19,Herbivore
444,37161899,1,DEERWHITETAILED,14_05_DON_000100.JPG,14_05_DON_000101.JPG,14_05_DON_000102.JPG,14,5,Deciduous,DON,2,2/28/19,5/16/19,4/22/19,Herbivore
449,37818925,1,DEERWHITETAILED,14_17_WF_000016.JPG,14_17_WF_000017.JPG,14_17_WF_000018.JPG,14,17,Pine,WF,3,5/15/19,9/3/19,9/3/19,Herbivore
450,37818927,1,DEERWHITETAILED,14_17_WF_000019.JPG,14_17_WF_000020.JPG,14_17_WF_000021.JPG,14,17,Pine,WF,3,5/15/19,9/3/19,9/3/19,Herbivore
451,37818928,1,DEERWHITETAILED,14_17_WF_000022.JPG,14_17_WF_000023.JPG,14_17_WF_000024.JPG,14,17,Pine,WF,3,5/15/19,9/3/19,9/3/19,Herbivore
460,37820324,1,DEERWHITETAILED,14_17_WF_000049.JPG,14_17_WF_000050.JPG,14_17_WF_000051.JPG,14,17,Pine,WF,3,5/15/19,9/3/19,9/3/19,Herbivore
471,37820582,1,DEERWHITETAILED,14_17_WF_000124.JPG,14_17_WF_000125.JPG,14_17_WF_000126.JPG,14,17,Pine,WF,3,5/15/19,9/3/19,9/3/19,Herbivore
472,37820583,2,DEERWHITETAILED,14_17_WF_000127.JPG,14_17_WF_000128.JPG,14_17_WF_000129.JPG,14,17,Pine,WF,3,5/15/19,9/3/19,9/3/19,Herbivore
478,37820926,1,DEERWHITETAILED,14_17_WF_000247.JPG,14_17_WF_000248.JPG,14_17_WF_000249.JPG,14,17,Pine,WF,3,5/15/19,9/3/19,9/3/19,Herbivore
481,37820993,1,DEERWHITETAILED,14_17_WF_000295.JPG,14_17_WF_000296.JPG,14_17_WF_000297.JPG,14,17,Pine,WF,3,5/15/19,9/3/19,9/3/19,Herbivore
485,37821342,1,DEERWHITETAILED,14_17_WF_000514.JPG,14_17_WF_000515.JPG,14_17_WF_000516.JPG,14,17,Pine,WF,3,5/15/19,9/3/19,9/3/19,Herbivore
500,37822340,1,DEERWHITETAILED,14_17_WF_000847.JPG,14_17_WF_000848.JPG,14_17_WF_000849.JPG,14,17,Pine,WF,3,5/15/19,9/3/19,9/3/19,Herbivore
501,37822353,2,DEERWHITETAILED,14_17_WF_000850.JPG,14_17_WF_000851.JPG,14_17_WF_000852.JPG,14,17,Pine,WF,3,5/15/19,9/3/19,9/3/19,Herbivore
505,37822438,1,DEERWHITETAILED,14_17_WF_000862.JPG,14_17_WF_000863.JPG,14_17_WF_000864.JPG,14,17,Pine,WF,3,5/15/19,9/3/19,9/3/19,Herbivore
506,37822512,1,DEERWHITETAILED,14_17_WF_000865.JPG,14_17_WF_000866.JPG,14_17_WF_000867.JPG,14,17,Pine,WF,3,5/15/19,9/3/19,9/3/19,Herbivore
507,37822584,1,DEERWHITETAILED,14_17_WF_000868.JPG,14_17_WF_000869.JPG,14_17_WF_000870.JPG,14,17,Pine,WF,3,5/15/19,9/3/19,9/3/19,Herbivore
508,37822585,1,DEERWHITETAILED,14_17_WF_000871.JPG,14_17_WF_000872.JPG,14_17_WF_000873.JPG,14,17,Pine,WF,3,5/15/19,9/3/19,9/3/19,Herbivore
510,37822654,1,DEERWHITETAILED,14_17_WF_000877.JPG,14_17_WF_000878.JPG,14_17_WF_000879.JPG,14,17,Pine,WF,3,5/15/19,9/3/19,9/3/19,Herbivore
511,37822656,1,DEERWHITETAILED,14_17_WF_000880.JPG,14_17_WF_000881.JPG,14_17_WF_000882.JPG,14,17,Pine,WF,3,5/15/19,9/3/19,9/3/19,Herbivore
512,37822739,1,DEERWHITETAILED,14_17_WF_000883.JPG,14_17_WF_000884.JPG,14_17_WF_000885.JPG,14,17,Pine,WF,3,5/15/19,9/3/19,9/3/19,Herbivore
513,37823247,1,DEERWHITETAILED,14_17_WF_000901.JPG,14_17_WF_000902.JPG,14_17_WF_000903.JPG,14,17,Pine,WF,3,5/15/19,9/3/19,9/3/19,Herbivore
515,31428410,1,DEERWHITETAILED,14_22_DON_000004.JPG,14_22_DON_000005.JPG,14_22_DON_000006.JPG,14,22,Deciduous,DON,1,12/13/18,2/25/19,2/25/19,Herbivore
517,31428414,2,DEERWHITETAILED,14_22_DON_000016.JPG,14_22_DON_000017.JPG,14_22_DON_000018.JPG,14,22,Deciduous,DON,1,12/13/18,2/25/19,2/25/19,Herbivore
518,31428415,1,DEERWHITETAILED,14_22_DON_000019.JPG,14_22_DON_000020.JPG,14_22_DON_000021.JPG,14,22,Deciduous,DON,1,12/13/18,2/25/19,2/25/19,Herbivore
519,31428417,1,DEERWHITETAILED,14_22_DON_000025.JPG,14_22_DON_000026.JPG,14_22_DON_000027.JPG,14,22,Deciduous,DON,1,12/13/18,2/25/19,2/25/19,Herbivore
520,31428418,1,DEERWHITETAILED,14_22_DON_000028.JPG,14_22_DON_000029.JPG,14_22_DON_000030.JPG,14,22,Deciduous,DON,1,12/13/18,2/25/19,2/25/19,Herbivore
521,31428419,1,DEERWHITETAILED,14_22_DON_000031.JPG,14_22_DON_000032.JPG,14_22_DON_000033.JPG,14,22,Deciduous,DON,1,12/13/18,2/25/19,2/25/19,Herbivore
522,31428420,1,DEERWHITETAILED,14_22_DON_000034.JPG,14_22_DON_000035.JPG,14_22_DON_000036.JPG,14,22,Deciduous,DON,1,12/13/18,2/25/19,2/25/19,Herbivore
523,31428421,1,DEERWHITETAILED,14_22_DON_000037.JPG,14_22_DON_000038.JPG,14_22_DON_000039.JPG,14,22,Deciduous,DON,1,12/13/18,2/25/19,2/25/19,Herbivore
524,31428422,1,DEERWHITETAILED,14_22_DON_000040.JPG,14_22_DON_000041.JPG,14_22_DON_000042.JPG,14,22,Deciduous,DON,1,12/13/18,2/25/19,2/25/19,Herbivore
525,31428424,1,DEERWHITETAILED,14_22_DON_000046.JPG,14_22_DON_000047.JPG,14_22_DON_000048.JPG,14,22,Deciduous,DON,1,12/13/18,2/25/19,2/25/19,Herbivore
526,31428425,1,DEERWHITETAILED,14_22_DON_000049.JPG,14_22_DON_000050.JPG,14_22_DON_000051.JPG,14,22,Deciduous,DON,1,12/13/18,2/25/19,2/25/19,Herbivore
527,31428426,1,DEERWHITETAILED,14_22_DON_000052.JPG,14_22_DON_000053.JPG,14_22_DON_000054.JPG,14,22,Deciduous,DON,1,12/13/18,2/25/19,2/25/19,Herbivore
528,31428427,1,DEERWHITETAILED,14_22_DON_000055.JPG,14_22_DON_000056.JPG,14_22_DON_000057.JPG,14,22,Deciduous,DON,1,12/13/18,2/25/19,2/25/19,Herbivore
529,31428428,1,DEERWHITETAILED,14_22_DON_000058.JPG,14_22_DON_000059.JPG,14_22_DON_000060.JPG,14,22,Deciduous,DON,1,12/13/18,2/25/19,2/25/19,Herbivore
530,31428429,1,DEERWHITETAILED,14_22_DON_000061.JPG,14_22_DON_000062.JPG,14_22_DON_000063.JPG,14,22,Deciduous,DON,1,12/13/18,2/25/19,2/25/19,Herbivore
532,31428431,1,DEERWHITETAILED,14_22_DON_000067.JPG,14_22_DON_000068.JPG,14_22_DON_000069.JPG,14,22,Deciduous,DON,1,12/13/18,2/25/19,2/25/19,Herbivore
534,31428433,1,DEERWHITETAILED,14_22_DON_000073.JPG,14_22_DON_000074.JPG,14_22_DON_000075.JPG,14,22,Deciduous,DON,1,12/13/18,2/25/19,2/25/19,Herbivore
536,31428438,1,DEERWHITETAILED,14_22_DON_000088.JPG,14_22_DON_000089.JPG,14_22_DON_000090.JPG,14,22,Deciduous,DON,1,12/13/18,2/25/19,2/25/19,Herbivore
537,31428440,1,DEERWHITETAILED,14_22_DON_000094.JPG,14_22_DON_000095.JPG,14_22_DON_000096.JPG,14,22,Deciduous,DON,1,12/13/18,2/25/19,2/25/19,Herbivore
538,31428441,1,DEERWHITETAILED,14_22_DON_000097.JPG,14_22_DON_000098.JPG,14_22_DON_000099.JPG,14,22,Deciduous,DON,1,12/13/18,2/25/19,2/25/19,Herbivore
540,31428444,1,DEERWHITETAILED,14_22_DON_000106.JPG,14_22_DON_000107.JPG,14_22_DON_000108.JPG,14,22,Deciduous,DON,1,12/13/18,2/25/19,2/25/19,Herbivore
543,31428448,1,DEERWHITETAILED,14_22_DON_000118.JPG,14_22_DON_000119.JPG,14_22_DON_000120.JPG,14,22,Deciduous,DON,1,12/13/18,2/25/19,2/25/19,Herbivore
545,39638584,1,DEERWHITETAILED,14_25_DON_000001.JPG,14_25_DON_000002.JPG,14_25_DON_000003.JPG,14,25,Deciduous,DON,4,9/17/19,11/6/19,11/6/19,Herbivore
546,39638626,1,DEERWHITETAILED,14_25_DON_000004.JPG,14_25_DON_000005.JPG,14_25_DON_000006.JPG,14,25,Deciduous,DON,4,9/17/19,11/6/19,11/6/19,Herbivore
553,39638596,1,DEERWHITETAILED,15_06_SH_000007.JPG,15_06_SH_000008.JPG,15_06_SH_000009.JPG,15,6,Deciduous,SH,4,9/20/19,12/7/19,12/7/19,Herbivore
554,39638597,1,DEERWHITETAILED,15_06_SH_000010.JPG,15_06_SH_000011.JPG,15_06_SH_000012.JPG,15,6,Deciduous,SH,4,9/20/19,12/7/19,12/7/19,Herbivore
557,39638638,1,DEERWHITETAILED,15_06_SH_000019.JPG,15_06_SH_000020.JPG,15_06_SH_000021.JPG,15,6,Deciduous,SH,4,9/20/19,12/7/19,12/7/19,Herbivore
558,39638639,1,DEERWHITETAILED,15_06_SH_000022.JPG,15_06_SH_000023.JPG,15_06_SH_000024.JPG,15,6,Deciduous,SH,4,9/20/19,12/7/19,12/7/19,Herbivore
559,39638640,1,DEERWHITETAILED,15_06_SH_000025.JPG,15_06_SH_000026.JPG,15_06_SH_000027.JPG,15,6,Deciduous,SH,4,9/20/19,12/7/19,12/7/19,Herbivore
560,39638641,1,DEERWHITETAILED,15_06_SH_000028.JPG,15_06_SH_000029.JPG,15_06_SH_000030.JPG,15,6,Deciduous,SH,4,9/20/19,12/7/19,12/7/19,Herbivore
572,39638925,1,DEERWHITETAILED,15_06_SH_000067.JPG,15_06_SH_000068.JPG,15_06_SH_000069.JPG,15,6,Deciduous,SH,4,9/20/19,12/7/19,12/7/19,Herbivore
577,39639069,1,DEERWHITETAILED,15_06_SH_000085.JPG,15_06_SH_000086.JPG,15_06_SH_000087.JPG,15,6,Deciduous,SH,4,9/20/19,12/7/19,12/7/19,Herbivore
579,39639087,1,DEERWHITETAILED,15_06_SH_000091.JPG,15_06_SH_000092.JPG,15_06_SH_000093.JPG,15,6,Deciduous,SH,4,9/20/19,12/7/19,12/7/19,Herbivore
583,39639168,1,DEERWHITETAILED,15_06_SH_000103.JPG,15_06_SH_000104.JPG,15_06_SH_000105.JPG,15,6,Deciduous,SH,4,9/20/19,12/7/19,12/7/19,Herbivore
585,39639201,1,DEERWHITETAILED,15_06_SH_000109.JPG,15_06_SH_000110.JPG,15_06_SH_000111.JPG,15,6,Deciduous,SH,4,9/20/19,12/7/19,12/7/19,Herbivore
588,39639241,1,DEERWHITETAILED,15_06_SH_000118.JPG,15_06_SH_000119.JPG,15_06_SH_000120.JPG,15,6,Deciduous,SH,4,9/20/19,12/7/19,12/7/19,Herbivore
589,39639242,1,DEERWHITETAILED,15_06_SH_000121.JPG,15_06_SH_000122.JPG,15_06_SH_000123.JPG,15,6,Deciduous,SH,4,9/20/19,12/7/19,12/7/19,Herbivore
590,39639244,1,DEERWHITETAILED,15_06_SH_000124.JPG,15_06_SH_000125.JPG,15_06_SH_000126.JPG,15,6,Deciduous,SH,4,9/20/19,12/7/19,12/7/19,Herbivore
591,39639253,1,DEERWHITETAILED,15_06_SH_000127.JPG,15_06_SH_000128.JPG,15_06_SH_000129.JPG,15,6,Deciduous,SH,4,9/20/19,12/7/19,12/7/19,Herbivore
592,39639254,1,DEERWHITETAILED,15_06_SH_000130.JPG,15_06_SH_000132.JPG,15_06_SH_000131.JPG,15,6,Deciduous,SH,4,9/20/19,12/7/19,12/7/19,Herbivore
593,39639255,1,DEERWHITETAILED,15_06_SH_000133.JPG,15_06_SH_000134.JPG,15_06_SH_000135.JPG,15,6,Deciduous,SH,4,9/20/19,12/7/19,12/7/19,Herbivore
594,39639256,1,DEERWHITETAILED,15_06_SH_000136.JPG,15_06_SH_000137.JPG,15_06_SH_000138.JPG,15,6,Deciduous,SH,4,9/20/19,12/7/19,12/7/19,Herbivore
595,39639257,1,DEERWHITETAILED,15_06_SH_000139.JPG,15_06_SH_000140.JPG,15_06_SH_000141.JPG,15,6,Deciduous,SH,4,9/20/19,12/7/19,12/7/19,Herbivore
596,39639258,1,DEERWHITETAILED,15_06_SH_000142.JPG,15_06_SH_000143.JPG,15_06_SH_000144.JPG,15,6,Deciduous,SH,4,9/20/19,12/7/19,12/7/19,Herbivore
597,39639259,1,DEERWHITETAILED,15_06_SH_000145.JPG,15_06_SH_000146.JPG,15_06_SH_000147.JPG,15,6,Deciduous,SH,4,9/20/19,12/7/19,12/7/19,Herbivore
598,39639260,1,DEERWHITETAILED,15_06_SH_000148.JPG,15_06_SH_000149.JPG,15_06_SH_000150.JPG,15,6,Deciduous,SH,4,9/20/19,12/7/19,12/7/19,Herbivore
599,39639261,1,DEERWHITETAILED,15_06_SH_000151.JPG,15_06_SH_000152.JPG,15_06_SH_000153.JPG,15,6,Deciduous,SH,4,9/20/19,12/7/19,12/7/19,Herbivore
600,39639262,1,DEERWHITETAILED,15_06_SH_000154.JPG,15_06_SH_000155.JPG,15_06_SH_000156.JPG,15,6,Deciduous,SH,4,9/20/19,12/7/19,12/7/19,Herbivore
601,39639263,1,DEERWHITETAILED,15_06_SH_000157.JPG,15_06_SH_000158.JPG,15_06_SH_000159.JPG,15,6,Deciduous,SH,4,9/20/19,12/7/19,12/7/19,Herbivore
602,39639264,1,DEERWHITETAILED,15_06_SH_000160.JPG,15_06_SH_000161.JPG,15_06_SH_000162.JPG,15,6,Deciduous,SH,4,9/20/19,12/7/19,12/7/19,Herbivore
603,39639265,1,DEERWHITETAILED,15_06_SH_000163.JPG,15_06_SH_000164.JPG,15_06_SH_000165.JPG,15,6,Deciduous,SH,4,9/20/19,12/7/19,12/7/19,Herbivore
604,39639266,1,DEERWHITETAILED,15_06_SH_000166.JPG,15_06_SH_000167.JPG,15_06_SH_000168.JPG,15,6,Deciduous,SH,4,9/20/19,12/7/19,12/7/19,Herbivore
605,39639267,1,DEERWHITETAILED,15_06_SH_000169.JPG,15_06_SH_000170.JPG,15_06_SH_000171.JPG,15,6,Deciduous,SH,4,9/20/19,12/7/19,12/7/19,Herbivore
606,39639268,2,DEERWHITETAILED,15_06_SH_000172.JPG,15_06_SH_000173.JPG,15_06_SH_000174.JPG,15,6,Deciduous,SH,4,9/20/19,12/7/19,12/7/19,Herbivore
607,39639269,1,DEERWHITETAILED,15_06_SH_000175.JPG,15_06_SH_000176.JPG,15_06_SH_000177.JPG,15,6,Deciduous,SH,4,9/20/19,12/7/19,12/7/19,Herbivore
608,39639270,1,DEERWHITETAILED,15_06_SH_000178.JPG,15_06_SH_000179.JPG,15_06_SH_000180.JPG,15,6,Deciduous,SH,4,9/20/19,12/7/19,12/7/19,Herbivore
609,39639271,1,DEERWHITETAILED,15_06_SH_000181.JPG,15_06_SH_000182.JPG,15_06_SH_000183.JPG,15,6,Deciduous,SH,4,9/20/19,12/7/19,12/7/19,Herbivore
610,39639272,1,DEERWHITETAILED,15_06_SH_000184.JPG,15_06_SH_000185.JPG,15_06_SH_000186.JPG,15,6,Deciduous,SH,4,9/20/19,12/7/19,12/7/19,Herbivore
611,39639273,1,DEERWHITETAILED,15_06_SH_000187.JPG,15_06_SH_000188.JPG,15_06_SH_000189.JPG,15,6,Deciduous,SH,4,9/20/19,12/7/19,12/7/19,Herbivore
612,39639274,1,DEERWHITETAILED,15_06_SH_000190.JPG,15_06_SH_000191.JPG,15_06_SH_000192.JPG,15,6,Deciduous,SH,4,9/20/19,12/7/19,12/7/19,Herbivore
613,39639275,1,DEERWHITETAILED,15_06_SH_000193.JPG,15_06_SH_000195.JPG,15_06_SH_000194.JPG,15,6,Deciduous,SH,4,9/20/19,12/7/19,12/7/19,Herbivore
614,39639276,1,DEERWHITETAILED,15_06_SH_000196.JPG,15_06_SH_000197.JPG,15_06_SH_000198.JPG,15,6,Deciduous,SH,4,9/20/19,12/7/19,12/7/19,Herbivore
615,39639277,1,DEERWHITETAILED,15_06_SH_000199.JPG,15_06_SH_000200.JPG,15_06_SH_000201.JPG,15,6,Deciduous,SH,4,9/20/19,12/7/19,12/7/19,Herbivore
616,39639278,1,DEERWHITETAILED,15_06_SH_000202.JPG,15_06_SH_000203.JPG,15_06_SH_000204.JPG,15,6,Deciduous,SH,4,9/20/19,12/7/19,12/7/19,Herbivore
617,39639279,1,DEERWHITETAILED,15_06_SH_000205.JPG,15_06_SH_000206.JPG,15_06_SH_000207.JPG,15,6,Deciduous,SH,4,9/20/19,12/7/19,12/7/19,Herbivore
618,39639280,1,DEERWHITETAILED,15_06_SH_000208.JPG,15_06_SH_000209.JPG,15_06_SH_000210.JPG,15,6,Deciduous,SH,4,9/20/19,12/7/19,12/7/19,Herbivore
619,39639282,1,DEERWHITETAILED,15_06_SH_000214.JPG,15_06_SH_000215.JPG,15_06_SH_000216.JPG,15,6,Deciduous,SH,4,9/20/19,12/7/19,12/7/19,Herbivore
620,39639283,1,DEERWHITETAILED,15_06_SH_000217.JPG,15_06_SH_000218.JPG,15_06_SH_000219.JPG,15,6,Deciduous,SH,4,9/20/19,12/7/19,12/7/19,Herbivore
621,39639284,1,DEERWHITETAILED,15_06_SH_000220.JPG,15_06_SH_000221.JPG,15_06_SH_000222.JPG,15,6,Deciduous,SH,4,9/20/19,12/7/19,12/7/19,Herbivore
622,39639285,1,DEERWHITETAILED,15_06_SH_000223.JPG,15_06_SH_000224.JPG,15_06_SH_000225.JPG,15,6,Deciduous,SH,4,9/20/19,12/7/19,12/7/19,Herbivore
623,39639286,1,DEERWHITETAILED,15_06_SH_000226.JPG,15_06_SH_000227.JPG,15_06_SH_000228.JPG,15,6,Deciduous,SH,4,9/20/19,12/7/19,12/7/19,Herbivore
624,39639287,1,DEERWHITETAILED,15_06_SH_000229.JPG,15_06_SH_000230.JPG,15_06_SH_000231.JPG,15,6,Deciduous,SH,4,9/20/19,12/7/19,12/7/19,Herbivore
625,39639288,1,DEERWHITETAILED,15_06_SH_000232.JPG,15_06_SH_000233.JPG,15_06_SH_000234.JPG,15,6,Deciduous,SH,4,9/20/19,12/7/19,12/7/19,Herbivore
626,39639289,1,DEERWHITETAILED,15_06_SH_000235.JPG,15_06_SH_000236.JPG,15_06_SH_000237.JPG,15,6,Deciduous,SH,4,9/20/19,12/7/19,12/7/19,Herbivore
627,39639290,1,DEERWHITETAILED,15_06_SH_000238.JPG,15_06_SH_000239.JPG,15_06_SH_000240.JPG,15,6,Deciduous,SH,4,9/20/19,12/7/19,12/7/19,Herbivore
628,39639292,1,DEERWHITETAILED,15_06_SH_000241.JPG,15_06_SH_000242.JPG,15_06_SH_000243.JPG,15,6,Deciduous,SH,4,9/20/19,12/7/19,12/7/19,Herbivore
629,39639293,1,DEERWHITETAILED,15_06_SH_000244.JPG,15_06_SH_000245.JPG,15_06_SH_000246.JPG,15,6,Deciduous,SH,4,9/20/19,12/7/19,12/7/19,Herbivore
630,39639294,1,DEERWHITETAILED,15_06_SH_000247.JPG,15_06_SH_000248.JPG,15_06_SH_000249.JPG,15,6,Deciduous,SH,4,9/20/19,12/7/19,12/7/19,Herbivore
631,39639295,1,DEERWHITETAILED,15_06_SH_000250.JPG,15_06_SH_000251.JPG,15_06_SH_000252.JPG,15,6,Deciduous,SH,4,9/20/19,12/7/19,12/7/19,Herbivore
632,39639296,1,DEERWHITETAILED,15_06_SH_000253.JPG,15_06_SH_000254.JPG,15_06_SH_000255.JPG,15,6,Deciduous,SH,4,9/20/19,12/7/19,12/7/19,Herbivore
633,39639297,1,DEERWHITETAILED,15_06_SH_000256.JPG,15_06_SH_000257.JPG,15_06_SH_000258.JPG,15,6,Deciduous,SH,4,9/20/19,12/7/19,12/7/19,Herbivore
634,39639298,1,DEERWHITETAILED,15_06_SH_000259.JPG,15_06_SH_000260.JPG,15_06_SH_000261.JPG,15,6,Deciduous,SH,4,9/20/19,12/7/19,12/7/19,Herbivore
635,39639299,1,DEERWHITETAILED,15_06_SH_000262.JPG,15_06_SH_000263.JPG,15_06_SH_000264.JPG,15,6,Deciduous,SH,4,9/20/19,12/7/19,12/7/19,Herbivore
636,39639300,1,DEERWHITETAILED,15_06_SH_000265.JPG,15_06_SH_000266.JPG,15_06_SH_000267.JPG,15,6,Deciduous,SH,4,9/20/19,12/7/19,12/7/19,Herbivore
638,39639423,1,DEERWHITETAILED,15_06_SH_000271.JPG,15_06_SH_000272.JPG,15_06_SH_000273.JPG,15,6,Deciduous,SH,4,9/20/19,12/7/19,12/7/19,Herbivore
639,39639424,1,DEERWHITETAILED,15_06_SH_000274.JPG,15_06_SH_000275.JPG,15_06_SH_000276.JPG,15,6,Deciduous,SH,4,9/20/19,12/7/19,12/7/19,Herbivore
640,39639425,1,DEERWHITETAILED,15_06_SH_000277.JPG,15_06_SH_000278.JPG,15_06_SH_000279.JPG,15,6,Deciduous,SH,4,9/20/19,12/7/19,12/7/19,Herbivore
654,39639697,1,DEERWHITETAILED,15_06_SH_000319.JPG,15_06_SH_000320.JPG,15_06_SH_000321.JPG,15,6,Deciduous,SH,4,9/20/19,12/7/19,12/7/19,Herbivore
655,39639719,1,DEERWHITETAILED,15_06_SH_000322.JPG,15_06_SH_000323.JPG,15_06_SH_000324.JPG,15,6,Deciduous,SH,4,9/20/19,12/7/19,12/7/19,Herbivore
656,39639720,1,DEERWHITETAILED,15_06_SH_000325.JPG,15_06_SH_000326.JPG,15_06_SH_000327.JPG,15,6,Deciduous,SH,4,9/20/19,12/7/19,12/7/19,Herbivore
657,39639721,1,DEERWHITETAILED,15_06_SH_000328.JPG,15_06_SH_000329.JPG,15_06_SH_000330.JPG,15,6,Deciduous,SH,4,9/20/19,12/7/19,12/7/19,Herbivore
658,39639722,1,DEERWHITETAILED,15_06_SH_000331.JPG,15_06_SH_000332.JPG,15_06_SH_000333.JPG,15,6,Deciduous,SH,4,9/20/19,12/7/19,12/7/19,Herbivore
659,39639723,2,DEERWHITETAILED,15_06_SH_000334.JPG,15_06_SH_000335.JPG,15_06_SH_000336.JPG,15,6,Deciduous,SH,4,9/20/19,12/7/19,12/7/19,Herbivore
660,39639724,1,DEERWHITETAILED,15_06_SH_000337.JPG,15_06_SH_000338.JPG,15_06_SH_000339.JPG,15,6,Deciduous,SH,4,9/20/19,12/7/19,12/7/19,Herbivore
661,39639725,1,DEERWHITETAILED,15_06_SH_000340.JPG,15_06_SH_000341.JPG,15_06_SH_000342.JPG,15,6,Deciduous,SH,4,9/20/19,12/7/19,12/7/19,Herbivore
662,39639726,1,DEERWHITETAILED,15_06_SH_000343.JPG,15_06_SH_000344.JPG,15_06_SH_000345.JPG,15,6,Deciduous,SH,4,9/20/19,12/7/19,12/7/19,Herbivore
663,39639727,1,DEERWHITETAILED,15_06_SH_000346.JPG,15_06_SH_000347.JPG,15_06_SH_000348.JPG,15,6,Deciduous,SH,4,9/20/19,12/7/19,12/7/19,Herbivore
664,39639728,1,DEERWHITETAILED,15_06_SH_000349.JPG,15_06_SH_000350.JPG,15_06_SH_000351.JPG,15,6,Deciduous,SH,4,9/20/19,12/7/19,12/7/19,Herbivore
665,39639729,1,DEERWHITETAILED,15_06_SH_000352.JPG,15_06_SH_000353.JPG,15_06_SH_000354.JPG,15,6,Deciduous,SH,4,9/20/19,12/7/19,12/7/19,Herbivore
666,39639730,1,DEERWHITETAILED,15_06_SH_000355.JPG,15_06_SH_000356.JPG,15_06_SH_000357.JPG,15,6,Deciduous,SH,4,9/20/19,12/7/19,12/7/19,Herbivore
667,39639731,1,DEERWHITETAILED,15_06_SH_000358.JPG,15_06_SH_000359.JPG,15_06_SH_000360.JPG,15,6,Deciduous,SH,4,9/20/19,12/7/19,12/7/19,Herbivore
668,39639732,1,DEERWHITETAILED,15_06_SH_000361.JPG,15_06_SH_000362.JPG,15_06_SH_000363.JPG,15,6,Deciduous,SH,4,9/20/19,12/7/19,12/7/19,Herbivore
669,39639733,1,DEERWHITETAILED,15_06_SH_000364.JPG,15_06_SH_000365.JPG,15_06_SH_000366.JPG,15,6,Deciduous,SH,4,9/20/19,12/7/19,12/7/19,Herbivore
670,39639734,1,DEERWHITETAILED,15_06_SH_000367.JPG,15_06_SH_000368.JPG,15_06_SH_000369.JPG,15,6,Deciduous,SH,4,9/20/19,12/7/19,12/7/19,Herbivore
671,39639735,1,DEERWHITETAILED,15_06_SH_000370.JPG,15_06_SH_000371.JPG,15_06_SH_000372.JPG,15,6,Deciduous,SH,4,9/20/19,12/7/19,12/7/19,Herbivore
672,39639736,1,DEERWHITETAILED,15_06_SH_000373.JPG,15_06_SH_000374.JPG,15_06_SH_000375.JPG,15,6,Deciduous,SH,4,9/20/19,12/7/19,12/7/19,Herbivore
673,39639737,1,DEERWHITETAILED,15_06_SH_000376.JPG,15_06_SH_000377.JPG,15_06_SH_000378.JPG,15,6,Deciduous,SH,4,9/20/19,12/7/19,12/7/19,Herbivore
674,39639738,1,DEERWHITETAILED,15_06_SH_000379.JPG,15_06_SH_000380.JPG,15_06_SH_000381.JPG,15,6,Deciduous,SH,4,9/20/19,12/7/19,12/7/19,Herbivore
675,39639739,1,DEERWHITETAILED,15_06_SH_000382.JPG,15_06_SH_000384.JPG,15_06_SH_000383.JPG,15,6,Deciduous,SH,4,9/20/19,12/7/19,12/7/19,Herbivore
676,39639740,1,DEERWHITETAILED,15_06_SH_000385.JPG,15_06_SH_000386.JPG,15_06_SH_000387.JPG,15,6,Deciduous,SH,4,9/20/19,12/7/19,12/7/19,Herbivore
677,39639741,1,DEERWHITETAILED,15_06_SH_000389.JPG,15_06_SH_000388.JPG,15_06_SH_000390.JPG,15,6,Deciduous,SH,4,9/20/19,12/7/19,12/7/19,Herbivore
678,39639742,1,DEERWHITETAILED,15_06_SH_000391.JPG,15_06_SH_000392.JPG,15_06_SH_000393.JPG,15,6,Deciduous,SH,4,9/20/19,12/7/19,12/7/19,Herbivore
679,39639743,1,DEERWHITETAILED,15_06_SH_000394.JPG,15_06_SH_000395.JPG,15_06_SH_000396.JPG,15,6,Deciduous,SH,4,9/20/19,12/7/19,12/7/19,Herbivore
680,39639744,1,DEERWHITETAILED,15_06_SH_000397.JPG,15_06_SH_000398.JPG,15_06_SH_000399.JPG,15,6,Deciduous,SH,4,9/20/19,12/7/19,12/7/19,Herbivore
681,39639745,1,DEERWHITETAILED,15_06_SH_000400.JPG,15_06_SH_000401.JPG,15_06_SH_000402.JPG,15,6,Deciduous,SH,4,9/20/19,12/7/19,12/7/19,Herbivore
682,39639746,1,DEERWHITETAILED,15_06_SH_000403.JPG,15_06_SH_000404.JPG,15_06_SH_000405.JPG,15,6,Deciduous,SH,4,9/20/19,12/7/19,12/7/19,Herbivore
683,39639747,1,DEERWHITETAILED,15_06_SH_000407.JPG,15_06_SH_000406.JPG,15_06_SH_000408.JPG,15,6,Deciduous,SH,4,9/20/19,12/7/19,12/7/19,Herbivore
684,39639748,1,DEERWHITETAILED,15_06_SH_000409.JPG,15_06_SH_000411.JPG,15_06_SH_000410.JPG,15,6,Deciduous,SH,4,9/20/19,12/7/19,12/7/19,Herbivore
685,39639749,1,DEERWHITETAILED,15_06_SH_000412.JPG,15_06_SH_000413.JPG,15_06_SH_000414.JPG,15,6,Deciduous,SH,4,9/20/19,12/7/19,12/7/19,Herbivore
686,39639750,1,DEERWHITETAILED,15_06_SH_000415.JPG,15_06_SH_000416.JPG,15_06_SH_000417.JPG,15,6,Deciduous,SH,4,9/20/19,12/7/19,12/7/19,Herbivore
687,39639751,1,DEERWHITETAILED,15_06_SH_000418.JPG,15_06_SH_000419.JPG,15_06_SH_000420.JPG,15,6,Deciduous,SH,4,9/20/19,12/7/19,12/7/19,Herbivore
688,39639752,1,DEERWHITETAILED,15_06_SH_000421.JPG,15_06_SH_000422.JPG,15_06_SH_000423.JPG,15,6,Deciduous,SH,4,9/20/19,12/7/19,12/7/19,Herbivore
689,39639753,1,DEERWHITETAILED,15_06_SH_000424.JPG,15_06_SH_000425.JPG,15_06_SH_000426.JPG,15,6,Deciduous,SH,4,9/20/19,12/7/19,12/7/19,Herbivore
690,39639754,1,DEERWHITETAILED,15_06_SH_000427.JPG,15_06_SH_000428.JPG,15_06_SH_000429.JPG,15,6,Deciduous,SH,4,9/20/19,12/7/19,12/7/19,Herbivore
691,39639755,1,DEERWHITETAILED,15_06_SH_000430.JPG,15_06_SH_000431.JPG,15_06_SH_000432.JPG,15,6,Deciduous,SH,4,9/20/19,12/7/19,12/7/19,Herbivore
692,39639756,1,DEERWHITETAILED,15_06_SH_000433.JPG,15_06_SH_000434.JPG,15_06_SH_000435.JPG,15,6,Deciduous,SH,4,9/20/19,12/7/19,12/7/19,Herbivore
693,39639757,1,DEERWHITETAILED,15_06_SH_000436.JPG,15_06_SH_000437.JPG,15_06_SH_000438.JPG,15,6,Deciduous,SH,4,9/20/19,12/7/19,12/7/19,Herbivore
694,39639758,1,DEERWHITETAILED,15_06_SH_000439.JPG,15_06_SH_000440.JPG,15_06_SH_000441.JPG,15,6,Deciduous,SH,4,9/20/19,12/7/19,12/7/19,Herbivore
695,39639759,1,DEERWHITETAILED,15_06_SH_000442.JPG,15_06_SH_000444.JPG,15_06_SH_000443.JPG,15,6,Deciduous,SH,4,9/20/19,12/7/19,12/7/19,Herbivore
696,39639760,1,DEERWHITETAILED,15_06_SH_000445.JPG,15_06_SH_000447.JPG,15_06_SH_000446.JPG,15,6,Deciduous,SH,4,9/20/19,12/7/19,12/7/19,Herbivore
697,39639761,1,DEERWHITETAILED,15_06_SH_000448.JPG,15_06_SH_000449.JPG,15_06_SH_000450.JPG,15,6,Deciduous,SH,4,9/20/19,12/7/19,12/7/19,Herbivore
698,39639762,1,DEERWHITETAILED,15_06_SH_000452.JPG,15_06_SH_000451.JPG,15_06_SH_000453.JPG,15,6,Deciduous,SH,4,9/20/19,12/7/19,12/7/19,Herbivore
699,39639763,1,DEERWHITETAILED,15_06_SH_000455.JPG,15_06_SH_000454.JPG,15_06_SH_000456.JPG,15,6,Deciduous,SH,4,9/20/19,12/7/19,12/7/19,Herbivore
700,39639764,1,DEERWHITETAILED,15_06_SH_000457.JPG,15_06_SH_000458.JPG,15_06_SH_000459.JPG,15,6,Deciduous,SH,4,9/20/19,12/7/19,12/7/19,Herbivore
701,39639765,1,DEERWHITETAILED,15_06_SH_000460.JPG,15_06_SH_000461.JPG,15_06_SH_000462.JPG,15,6,Deciduous,SH,4,9/20/19,12/7/19,12/7/19,Herbivore
702,39639766,1,DEERWHITETAILED,15_06_SH_000463.JPG,15_06_SH_000464.JPG,15_06_SH_000465.JPG,15,6,Deciduous,SH,4,9/20/19,12/7/19,12/7/19,Herbivore
703,39639767,1,DEERWHITETAILED,15_06_SH_000466.JPG,15_06_SH_000467.JPG,15_06_SH_000468.JPG,15,6,Deciduous,SH,4,9/20/19,12/7/19,12/7/19,Herbivore
704,39639781,1,DEERWHITETAILED,15_06_SH_000469.JPG,15_06_SH_000471.JPG,15_06_SH_000470.JPG,15,6,Deciduous,SH,4,9/20/19,12/7/19,12/7/19,Herbivore
705,39639782,1,DEERWHITETAILED,15_06_SH_000473.JPG,15_06_SH_000472.JPG,15_06_SH_000474.JPG,15,6,Deciduous,SH,4,9/20/19,12/7/19,12/7/19,Herbivore
706,39639783,1,DEERWHITETAILED,15_06_SH_000476.JPG,15_06_SH_000475.JPG,15_06_SH_000477.JPG,15,6,Deciduous,SH,4,9/20/19,12/7/19,12/7/19,Herbivore
707,39639784,1,DEERWHITETAILED,15_06_SH_000479.JPG,15_06_SH_000478.JPG,15_06_SH_000480.JPG,15,6,Deciduous,SH,4,9/20/19,12/7/19,12/7/19,Herbivore
708,39639785,1,DEERWHITETAILED,15_06_SH_000481.JPG,15_06_SH_000482.JPG,15_06_SH_000483.JPG,15,6,Deciduous,SH,4,9/20/19,12/7/19,12/7/19,Herbivore
709,39639786,1,DEERWHITETAILED,15_06_SH_000484.JPG,15_06_SH_000485.JPG,15_06_SH_000486.JPG,15,6,Deciduous,SH,4,9/20/19,12/7/19,12/7/19,Herbivore
710,39639787,1,DEERWHITETAILED,15_06_SH_000488.JPG,15_06_SH_000487.JPG,15_06_SH_000489.JPG,15,6,Deciduous,SH,4,9/20/19,12/7/19,12/7/19,Herbivore
711,39639789,1,DEERWHITETAILED,15_06_SH_000490.JPG,15_06_SH_000492.JPG,15_06_SH_000491.JPG,15,6,Deciduous,SH,4,9/20/19,12/7/19,12/7/19,Herbivore
712,39639790,1,DEERWHITETAILED,15_06_SH_000494.JPG,15_06_SH_000495.JPG,15_06_SH_000493.JPG,15,6,Deciduous,SH,4,9/20/19,12/7/19,12/7/19,Herbivore
713,39639791,1,DEERWHITETAILED,15_06_SH_000496.JPG,15_06_SH_000498.JPG,15_06_SH_000497.JPG,15,6,Deciduous,SH,4,9/20/19,12/7/19,12/7/19,Herbivore
714,39639792,1,DEERWHITETAILED,15_06_SH_000499.JPG,15_06_SH_000500.JPG,15_06_SH_000501.JPG,15,6,Deciduous,SH,4,9/20/19,12/7/19,12/7/19,Herbivore
715,39639793,1,DEERWHITETAILED,15_06_SH_000502.JPG,15_06_SH_000503.JPG,15_06_SH_000504.JPG,15,6,Deciduous,SH,4,9/20/19,12/7/19,12/7/19,Herbivore
716,39639794,1,DEERWHITETAILED,15_06_SH_000505.JPG,15_06_SH_000506.JPG,15_06_SH_000507.JPG,15,6,Deciduous,SH,4,9/20/19,12/7/19,12/7/19,Herbivore
717,39639795,2,DEERWHITETAILED,15_06_SH_000508.JPG,15_06_SH_000509.JPG,15_06_SH_000510.JPG,15,6,Deciduous,SH,4,9/20/19,12/7/19,12/7/19,Herbivore
718,39639796,1,DEERWHITETAILED,15_06_SH_000511.JPG,15_06_SH_000512.JPG,15_06_SH_000513.JPG,15,6,Deciduous,SH,4,9/20/19,12/7/19,12/7/19,Herbivore
719,39639797,1,DEERWHITETAILED,15_06_SH_000514.JPG,15_06_SH_000515.JPG,15_06_SH_000516.JPG,15,6,Deciduous,SH,4,9/20/19,12/7/19,12/7/19,Herbivore
723,39639874,1,DEERWHITETAILED,15_06_SH_000529.JPG,15_06_SH_000530.JPG,15_06_SH_000531.JPG,15,6,Deciduous,SH,4,9/20/19,12/7/19,12/7/19,Herbivore
724,39639880,1,DEERWHITETAILED,15_06_SH_000532.JPG,15_06_SH_000533.JPG,15_06_SH_000534.JPG,15,6,Deciduous,SH,4,9/20/19,12/7/19,12/7/19,Herbivore
725,39639883,1,DEERWHITETAILED,15_06_SH_000535.JPG,15_06_SH_000536.JPG,15_06_SH_000537.JPG,15,6,Deciduous,SH,4,9/20/19,12/7/19,12/7/19,Herbivore
730,39639944,1,DEERWHITETAILED,15_06_SH_000553.JPG,15_06_SH_000554.JPG,15_06_SH_000555.JPG,15,6,Deciduous,SH,4,9/20/19,12/7/19,12/7/19,Herbivore
731,39639945,1,DEERWHITETAILED,15_06_SH_000556.JPG,15_06_SH_000557.JPG,15_06_SH_000558.JPG,15,6,Deciduous,SH,4,9/20/19,12/7/19,12/7/19,Herbivore
732,39639946,1,DEERWHITETAILED,15_06_SH_000559.JPG,15_06_SH_000560.JPG,15_06_SH_000561.JPG,15,6,Deciduous,SH,4,9/20/19,12/7/19,12/7/19,Herbivore
733,39639960,1,DEERWHITETAILED,15_06_SH_000562.JPG,15_06_SH_000563.JPG,15_06_SH_000564.JPG,15,6,Deciduous,SH,4,9/20/19,12/7/19,12/7/19,Herbivore
734,39639961,1,DEERWHITETAILED,15_06_SH_000565.JPG,15_06_SH_000566.JPG,15_06_SH_000567.JPG,15,6,Deciduous,SH,4,9/20/19,12/7/19,12/7/19,Herbivore
735,39639974,1,DEERWHITETAILED,15_06_SH_000569.JPG,15_06_SH_000568.JPG,15_06_SH_000570.JPG,15,6,Deciduous,SH,4,9/20/19,12/7/19,12/7/19,Herbivore
740,39640001,1,DEERWHITETAILED,15_06_SH_000583.JPG,15_06_SH_000585.JPG,15_06_SH_000584.JPG,15,6,Deciduous,SH,4,9/20/19,12/7/19,12/7/19,Herbivore
741,39640003,1,DEERWHITETAILED,15_06_SH_000586.JPG,15_06_SH_000588.JPG,15_06_SH_000587.JPG,15,6,Deciduous,SH,4,9/20/19,12/7/19,12/7/19,Herbivore
759,39640062,1,DEERWHITETAILED,15_06_SH_000640.JPG,15_06_SH_000641.JPG,15_06_SH_000642.JPG,15,6,Deciduous,SH,4,9/20/19,12/7/19,12/7/19,Herbivore
766,31428450,1,DEERWHITETAILED,15_14_DEG_000002.JPG,15_14_DEG_000003.JPG,15_14_DEG_000001.JPG,15,14,Pine,DEG,1,11/26/18,2/7/19,2/7/19,Herbivore
767,31428451,1,DEERWHITETAILED,15_14_DEG_000004.JPG,15_14_DEG_000005.JPG,15_14_DEG_000006.JPG,15,14,Pine,DEG,1,11/26/18,2/7/19,2/7/19,Herbivore
768,31428452,1,DEERWHITETAILED,15_14_DEG_000007.JPG,15_14_DEG_000008.JPG,15_14_DEG_000009.JPG,15,14,Pine,DEG,1,11/26/18,2/7/19,2/7/19,Herbivore
769,31428453,1,DEERWHITETAILED,15_14_DEG_000010.JPG,15_14_DEG_000011.JPG,15_14_DEG_000012.JPG,15,14,Pine,DEG,1,11/26/18,2/7/19,2/7/19,Herbivore
771,31428455,1,DEERWHITETAILED,15_14_DEG_000016.JPG,15_14_DEG_000017.JPG,15_14_DEG_000018.JPG,15,14,Pine,DEG,1,11/26/18,2/7/19,2/7/19,Herbivore
773,31428457,1,DEERWHITETAILED,15_14_DEG_000022.JPG,15_14_DEG_000023.JPG,15_14_DEG_000024.JPG,15,14,Pine,DEG,1,11/26/18,2/7/19,2/7/19,Herbivore
774,31428458,1,DEERWHITETAILED,15_14_DEG_000025.JPG,15_14_DEG_000026.JPG,15_14_DEG_000027.JPG,15,14,Pine,DEG,1,11/26/18,2/7/19,2/7/19,Herbivore
776,31428461,1,DEERWHITETAILED,15_14_DEG_000034.JPG,15_14_DEG_000035.JPG,15_14_DEG_000036.JPG,15,14,Pine,DEG,1,11/26/18,2/7/19,2/7/19,Herbivore
777,31428462,1,DEERWHITETAILED,15_14_DEG_000037.JPG,15_14_DEG_000038.JPG,15_14_DEG_000039.JPG,15,14,Pine,DEG,1,11/26/18,2/7/19,2/7/19,Herbivore
778,31428463,1,DEERWHITETAILED,15_14_DEG_000040.JPG,15_14_DEG_000041.JPG,15_14_DEG_000042.JPG,15,14,Pine,DEG,1,11/26/18,2/7/19,2/7/19,Herbivore
779,31428464,1,DEERWHITETAILED,15_14_DEG_000043.JPG,15_14_DEG_000044.JPG,NA,15,14,Pine,DEG,1,11/26/18,2/7/19,2/7/19,Herbivore
780,31428465,1,DEERWHITETAILED,15_14_DEG_000046.JPG,15_14_DEG_000047.JPG,15_14_DEG_000048.JPG,15,14,Pine,DEG,1,11/26/18,2/7/19,2/7/19,Herbivore
781,31428466,1,DEERWHITETAILED,15_14_DEG_000049.JPG,15_14_DEG_000050.JPG,15_14_DEG_000051.JPG,15,14,Pine,DEG,1,11/26/18,2/7/19,2/7/19,Herbivore
783,31428468,1,DEERWHITETAILED,15_14_DEG_000055.JPG,15_14_DEG_000056.JPG,15_14_DEG_000057.JPG,15,14,Pine,DEG,1,11/26/18,2/7/19,2/7/19,Herbivore
784,31428469,1,DEERWHITETAILED,15_14_DEG_000058.JPG,15_14_DEG_000059.JPG,15_14_DEG_000060.JPG,15,14,Pine,DEG,1,11/26/18,2/7/19,2/7/19,Herbivore
785,31428470,1,DEERWHITETAILED,15_14_DEG_000061.JPG,15_14_DEG_000062.JPG,15_14_DEG_000063.JPG,15,14,Pine,DEG,1,11/26/18,2/7/19,2/7/19,Herbivore
786,31428471,1,DEERWHITETAILED,15_14_DEG_000064.JPG,15_14_DEG_000065.JPG,15_14_DEG_000066.JPG,15,14,Pine,DEG,1,11/26/18,2/7/19,2/7/19,Herbivore
787,31428472,1,DEERWHITETAILED,15_14_DEG_000067.JPG,15_14_DEG_000068.JPG,15_14_DEG_000069.JPG,15,14,Pine,DEG,1,11/26/18,2/7/19,2/7/19,Herbivore
788,31428474,1,DEERWHITETAILED,15_14_DEG_000073.JPG,15_14_DEG_000074.JPG,15_14_DEG_000075.JPG,15,14,Pine,DEG,1,11/26/18,2/7/19,2/7/19,Herbivore
789,31428475,1,DEERWHITETAILED,15_14_DEG_000076.JPG,15_14_DEG_000077.JPG,15_14_DEG_000078.JPG,15,14,Pine,DEG,1,11/26/18,2/7/19,2/7/19,Herbivore
790,31428476,1,DEERWHITETAILED,15_14_DEG_000079.JPG,15_14_DEG_000080.JPG,15_14_DEG_000081.JPG,15,14,Pine,DEG,1,11/26/18,2/7/19,2/7/19,Herbivore
791,31428477,1,DEERWHITETAILED,15_14_DEG_000082.JPG,15_14_DEG_000083.JPG,15_14_DEG_000084.JPG,15,14,Pine,DEG,1,11/26/18,2/7/19,2/7/19,Herbivore
792,31428478,2,DEERWHITETAILED,15_14_DEG_000085.JPG,15_14_DEG_000086.JPG,15_14_DEG_000087.JPG,15,14,Pine,DEG,1,11/26/18,2/7/19,2/7/19,Herbivore
793,31428479,1,DEERWHITETAILED,15_14_DEG_000088.JPG,15_14_DEG_000089.JPG,15_14_DEG_000090.JPG,15,14,Pine,DEG,1,11/26/18,2/7/19,2/7/19,Herbivore
794,31428480,1,DEERWHITETAILED,15_14_DEG_000091.JPG,15_14_DEG_000092.JPG,15_14_DEG_000093.JPG,15,14,Pine,DEG,1,11/26/18,2/7/19,2/7/19,Herbivore
795,31428481,1,DEERWHITETAILED,15_14_DEG_000094.JPG,15_14_DEG_000095.JPG,15_14_DEG_000096.JPG,15,14,Pine,DEG,1,11/26/18,2/7/19,2/7/19,Herbivore
796,31428482,1,DEERWHITETAILED,15_14_DEG_000097.JPG,15_14_DEG_000098.JPG,15_14_DEG_000099.JPG,15,14,Pine,DEG,1,11/26/18,2/7/19,2/7/19,Herbivore
797,31428483,1,DEERWHITETAILED,15_14_DEG_000100.JPG,15_14_DEG_000101.JPG,15_14_DEG_000102.JPG,15,14,Pine,DEG,1,11/26/18,2/7/19,2/7/19,Herbivore
798,31428484,1,DEERWHITETAILED,15_14_DEG_000103.JPG,15_14_DEG_000104.JPG,15_14_DEG_000105.JPG,15,14,Pine,DEG,1,11/26/18,2/7/19,2/7/19,Herbivore
800,31428486,1,DEERWHITETAILED,15_14_DEG_000109.JPG,15_14_DEG_000110.JPG,15_14_DEG_000111.JPG,15,14,Pine,DEG,1,11/26/18,2/7/19,2/7/19,Herbivore
801,31428487,1,DEERWHITETAILED,15_14_DEG_000112.JPG,15_14_DEG_000113.JPG,15_14_DEG_000114.JPG,15,14,Pine,DEG,1,11/26/18,2/7/19,2/7/19,Herbivore
802,31428488,1,DEERWHITETAILED,15_14_DEG_000118.JPG,15_14_DEG_000119.JPG,15_14_DEG_000120.JPG,15,14,Pine,DEG,1,11/26/18,2/7/19,2/7/19,Herbivore
803,31428489,1,DEERWHITETAILED,15_14_DEG_000121.JPG,15_14_DEG_000122.JPG,15_14_DEG_000123.JPG,15,14,Pine,DEG,1,11/26/18,2/7/19,2/7/19,Herbivore
804,31428490,2,DEERWHITETAILED,15_14_DEG_000124.JPG,15_14_DEG_000125.JPG,15_14_DEG_000126.JPG,15,14,Pine,DEG,1,11/26/18,2/7/19,2/7/19,Herbivore
807,31428493,1,DEERWHITETAILED,15_14_DEG_000133.JPG,15_14_DEG_000134.JPG,15_14_DEG_000135.JPG,15,14,Pine,DEG,1,11/26/18,2/7/19,2/7/19,Herbivore
808,31428494,1,DEERWHITETAILED,15_14_DEG_000139.JPG,15_14_DEG_000140.JPG,15_14_DEG_000141.JPG,15,14,Pine,DEG,1,11/26/18,2/7/19,2/7/19,Herbivore
809,31428495,1,DEERWHITETAILED,15_14_DEG_000142.JPG,15_14_DEG_000143.JPG,15_14_DEG_000144.JPG,15,14,Pine,DEG,1,11/26/18,2/7/19,2/7/19,Herbivore
810,31428496,1,DEERWHITETAILED,15_14_DEG_000145.JPG,15_14_DEG_000146.JPG,15_14_DEG_000147.JPG,15,14,Pine,DEG,1,11/26/18,2/7/19,2/7/19,Herbivore
811,31428498,1,DEERWHITETAILED,15_14_DEG_000151.JPG,15_14_DEG_000152.JPG,15_14_DEG_000153.JPG,15,14,Pine,DEG,1,11/26/18,2/7/19,2/7/19,Herbivore
813,31428500,1,DEERWHITETAILED,15_14_DEG_000157.JPG,15_14_DEG_000158.JPG,15_14_DEG_000159.JPG,15,14,Pine,DEG,1,11/26/18,2/7/19,2/7/19,Herbivore
814,31428501,1,DEERWHITETAILED,15_14_DEG_000160.JPG,15_14_DEG_000161.JPG,15_14_DEG_000162.JPG,15,14,Pine,DEG,1,11/26/18,2/7/19,2/7/19,Herbivore
815,31428502,1,DEERWHITETAILED,15_14_DEG_000163.JPG,15_14_DEG_000164.JPG,15_14_DEG_000165.JPG,15,14,Pine,DEG,1,11/26/18,2/7/19,2/7/19,Herbivore
816,31428504,1,DEERWHITETAILED,15_14_DEG_000169.JPG,15_14_DEG_000170.JPG,15_14_DEG_000171.JPG,15,14,Pine,DEG,1,11/26/18,2/7/19,2/7/19,Herbivore
817,31428505,1,DEERWHITETAILED,15_14_DEG_000172.JPG,15_14_DEG_000173.JPG,15_14_DEG_000174.JPG,15,14,Pine,DEG,1,11/26/18,2/7/19,2/7/19,Herbivore
818,31428506,1,DEERWHITETAILED,15_14_DEG_000175.JPG,15_14_DEG_000176.JPG,15_14_DEG_000177.JPG,15,14,Pine,DEG,1,11/26/18,2/7/19,2/7/19,Herbivore
819,31428507,1,DEERWHITETAILED,15_14_DEG_000178.JPG,15_14_DEG_000179.JPG,15_14_DEG_000180.JPG,15,14,Pine,DEG,1,11/26/18,2/7/19,2/7/19,Herbivore
820,31428508,1,DEERWHITETAILED,15_14_DEG_000181.JPG,15_14_DEG_000182.JPG,15_14_DEG_000183.JPG,15,14,Pine,DEG,1,11/26/18,2/7/19,2/7/19,Herbivore
821,31428509,1,DEERWHITETAILED,15_14_DEG_000184.JPG,15_14_DEG_000185.JPG,15_14_DEG_000186.JPG,15,14,Pine,DEG,1,11/26/18,2/7/19,2/7/19,Herbivore
822,31428510,1,DEERWHITETAILED,15_14_DEG_000187.JPG,15_14_DEG_000188.JPG,15_14_DEG_000189.JPG,15,14,Pine,DEG,1,11/26/18,2/7/19,2/7/19,Herbivore
823,31428511,1,DEERWHITETAILED,15_14_DEG_000190.JPG,15_14_DEG_000191.JPG,15_14_DEG_000192.JPG,15,14,Pine,DEG,1,11/26/18,2/7/19,2/7/19,Herbivore
824,31428512,1,DEERWHITETAILED,15_14_DEG_000193.JPG,15_14_DEG_000194.JPG,15_14_DEG_000195.JPG,15,14,Pine,DEG,1,11/26/18,2/7/19,2/7/19,Herbivore
826,31428514,1,DEERWHITETAILED,15_14_DEG_000199.JPG,15_14_DEG_000200.JPG,15_14_DEG_000201.JPG,15,14,Pine,DEG,1,11/26/18,2/7/19,2/7/19,Herbivore
827,31428515,1,DEERWHITETAILED,15_14_DEG_000202.JPG,15_14_DEG_000203.JPG,15_14_DEG_000204.JPG,15,14,Pine,DEG,1,11/26/18,2/7/19,2/7/19,Herbivore
828,31428517,1,DEERWHITETAILED,15_14_DEG_000208.JPG,15_14_DEG_000209.JPG,15_14_DEG_000210.JPG,15,14,Pine,DEG,1,11/26/18,2/7/19,2/7/19,Herbivore
